subnum,version,direction,endearly,trialnum,length,try,input,response,correct,resptime
122-C-10-3-5,1,backward,0,1,3,0,412,412,1,1288
122-C-10-3-5,1,backward,0,2,3,1,203,203,1,1614
122-C-10-3-5,1,backward,0,3,4,0,6783,3876,0,3887
122-C-10-3-5,1,backward,0,4,4,1,2780,2780,1,1700
122-C-10-3-5,1,backward,0,5,5,0,74329,92347,0,2112
122-C-10-3-5,1,backward,0,6,5,1,26807,26807,1,3316
122-C-10-3-5,1,backward,0,7,6,0,592687,592687,1,4676
122-C-10-3-5,1,backward,0,8,6,1,936248,706248,0,4347
122-C-10-3-5,1,backward,0,9,7,0,7153894,3706894,0,6001
122-C-10-3-5,1,backward,0,10,7,1,0145632,4198632,0,7391
122-C-11-1-6,1,backward,0,1,3,0,957,957,1,1999
122-C-11-1-6,1,backward,0,2,3,1,357,357,1,3159
122-C-11-1-6,1,backward,0,3,4,0,8390,8390,1,1824
122-C-11-1-6,1,backward,0,4,4,1,2438,2438,1,2931
122-C-11-1-6,1,backward,0,5,5,0,18634,18634,1,1625
122-C-11-1-6,1,backward,0,6,5,1,72845,72845,1,4429
122-C-11-1-6,1,backward,0,7,6,0,209671,209671,1,2271
122-C-11-1-6,1,backward,0,8,6,1,829450,829450,1,3253
122-C-11-1-6,1,backward,0,9,7,0,6405971,8405971,0,4386
122-C-11-1-6,1,backward,0,10,7,1,7396451,8406451,0,7731
122-C-12-3-4,1,backward,0,1,3,0,124,124,1,2217
122-C-12-3-4,1,backward,0,2,3,1,602,602,1,1310
122-C-12-3-4,1,backward,0,3,4,0,3589,3589,1,1747
122-C-12-3-4,1,backward,0,4,4,1,1907,1907,1,2060
122-C-12-3-4,1,backward,0,5,5,0,32180,32180,1,2670
122-C-12-3-4,1,backward,0,6,5,1,01679,01679,1,2715
122-C-12-3-4,1,backward,0,7,6,0,908512,908512,1,3421
122-C-12-3-4,1,backward,0,8,6,1,189560,189560,1,4053
122-C-12-3-4,1,backward,0,9,7,0,5971382,5891382,0,5613
122-C-12-3-4,1,backward,0,10,7,1,7615923,3895123,0,4539
122-C-1-2-5,1,backward,0,1,3,0,419,419,1,2296
122-C-1-2-5,1,backward,0,2,3,1,381,381,1,1940
122-C-1-2-5,1,backward,0,3,4,0,5380,5380,1,3806
122-C-1-2-5,1,backward,0,4,4,1,7162,7162,1,5518
122-C-1-2-5,1,backward,0,5,5,0,68709,68709,1,6140
122-C-1-2-5,1,backward,0,6,5,1,12943,12943,1,5068
122-C-1-2-5,1,backward,0,7,6,0,694528,165248,0,8479
122-C-1-2-5,1,backward,0,8,6,1,163059,163059,1,4833
122-C-1-2-5,1,backward,0,9,7,0,6024371,6024371,1,5628
122-C-1-2-5,1,backward,0,10,7,1,9814062,9864062,0,9184
122-C-1-2-5,1,backward,0,11,8,0,74892356,42862456,0,7371
122-C-1-2-5,1,backward,0,12,8,1,62397408,32546908,0,4382
122-C-2-3-2,1,backward,0,1,3,0,640,640,1,2494
122-C-2-3-2,1,backward,0,2,3,1,425,425,1,1972
122-C-2-3-2,1,backward,0,3,4,0,6593,6593,1,3320
122-C-2-3-2,1,backward,0,4,4,1,2863,2863,1,3369
122-C-2-3-2,1,backward,0,5,5,0,05679,05679,1,3408
122-C-2-3-2,1,backward,0,6,5,1,10658,10658,1,3773
122-C-2-3-2,1,backward,0,7,6,0,479326,654726,0,5497
122-C-2-3-2,1,backward,0,8,6,1,056894,056894,1,4711
122-C-2-3-2,1,backward,0,9,7,0,7310284,7064284,0,8185
122-C-2-3-2,1,backward,0,10,7,1,7163245,0763245,0,5417
122-C-3-4-6,1,backward,0,1,3,0,157,157,1,1358
122-C-3-4-6,1,backward,0,2,3,1,605,605,1,1699
122-C-3-4-6,1,backward,0,3,4,0,7426,7426,1,3770
122-C-3-4-6,1,backward,0,4,4,1,3150,3150,1,3160
122-C-3-4-6,1,backward,0,5,5,0,01452,01452,1,3532
122-C-3-4-6,1,backward,0,6,5,1,06531,06531,1,4383
122-C-3-4-6,1,backward,0,7,6,0,826573,548673,0,6553
122-C-3-4-6,1,backward,0,8,6,1,139568,315968,0,4524
122-C-4-1-5,1,backward,0,1,3,0,729,729,1,2467
122-C-4-1-5,1,backward,0,2,3,1,632,632,1,1984
122-C-4-1-5,1,backward,0,3,4,0,2745,2745,1,2474
122-C-4-1-5,1,backward,0,4,4,1,1409,1409,1,3568
122-C-4-1-5,1,backward,0,5,5,0,38729,38729,1,2683
122-C-4-1-5,1,backward,0,6,5,1,23890,23890,1,2522
122-C-4-1-5,1,backward,0,7,6,0,857926,857926,1,3490
122-C-4-1-5,1,backward,0,8,6,1,861950,851950,0,5017
122-C-4-1-5,1,backward,0,9,7,0,9845130,8387130,0,5176
122-C-4-1-5,1,backward,0,10,7,1,5701463,9701463,0,13272
122-C-5-3-3,1,backward,0,1,3,0,945,945,1,1545
122-C-5-3-3,1,backward,0,2,3,1,728,728,1,7169
122-C-5-3-3,1,backward,0,3,4,0,6897,6897,1,2807
122-C-5-3-3,1,backward,0,4,4,1,3195,3195,1,2712
122-C-5-3-3,1,backward,0,5,5,0,28469,28469,1,3147
122-C-5-3-3,1,backward,0,6,5,1,19486,19486,1,2787
122-C-5-3-3,1,backward,0,7,6,0,436905,436905,1,3562
122-C-5-3-3,1,backward,0,8,6,1,745810,745810,1,2966
122-C-5-3-3,1,backward,0,9,7,0,6157043,8167043,0,5575
122-C-5-3-3,1,backward,0,10,7,1,5876419,5478619,0,2862
122-C-6-4-1,1,backward,0,1,3,0,761,761,1,1494
122-C-6-4-1,1,backward,0,2,3,1,150,150,1,1526
122-C-6-4-1,1,backward,0,3,4,0,4615,4615,1,1465
122-C-6-4-1,1,backward,0,4,4,1,5786,5786,1,2284
122-C-6-4-1,1,backward,0,5,5,0,50478,50478,1,5033
122-C-6-4-1,1,backward,0,6,5,1,38549,37549,0,3154
122-C-6-4-1,1,backward,0,7,6,0,638240,376840,0,7729
122-C-6-4-1,1,backward,0,8,6,1,073459,073459,1,3759
122-C-6-4-1,1,backward,0,9,7,0,4206715,4206715,1,3310
122-C-6-4-1,1,backward,0,10,7,1,3702519,4073719,0,5589
122-C-6-4-1,1,backward,0,11,8,0,74360952,47360952,0,4220
122-C-6-4-1,1,backward,0,12,8,1,46270981,42670981,0,5114
122-C-7-1-3,1,backward,0,1,3,0,725,725,1,1485
122-C-7-1-3,1,backward,0,2,3,1,953,953,1,1800
122-C-7-1-3,1,backward,0,3,4,0,5806,5086,0,4560
122-C-7-1-3,1,backward,0,4,4,1,9214,9214,1,1966
122-C-7-1-3,1,backward,0,5,5,0,90782,90782,1,1813
122-C-7-1-3,1,backward,0,6,5,1,81354,81354,1,2670
122-C-7-1-3,1,backward,0,7,6,0,279804,279804,1,2269
122-C-7-1-3,1,backward,0,8,6,1,359724,359724,1,6318
122-C-7-1-3,1,backward,0,9,7,0,3815740,3815740,1,8455
122-C-7-1-3,1,backward,0,10,7,1,8106437,8016437,0,5697
122-C-7-1-3,1,backward,0,11,8,0,03124768,80124768,0,5433
122-C-7-1-3,1,backward,0,12,8,1,26987014,85637014,0,8260
122-C-8-3-7,1,backward,0,1,3,0,231,231,1,669
122-C-8-3-7,1,backward,0,2,3,1,836,836,1,2035
122-C-8-3-7,1,backward,0,3,4,0,0783,0783,1,1623
122-C-8-3-7,1,backward,0,4,4,1,0592,0592,1,1525
122-C-8-3-7,1,backward,0,5,5,0,85432,85432,1,2223
122-C-8-3-7,1,backward,0,6,5,1,35097,35097,1,3423
122-C-8-3-7,1,backward,0,7,6,0,152304,152304,1,3068
122-C-8-3-7,1,backward,0,8,6,1,308947,308947,1,4129
122-C-8-3-7,1,backward,0,9,7,0,3609257,3609527,0,13595
122-C-8-3-7,1,backward,0,10,7,1,3821064,3820164,0,12154
122-C-9-4-2,1,backward,0,1,3,0,538,538,1,1282
122-C-9-4-2,1,backward,0,2,3,1,079,079,1,1360
122-C-9-4-2,1,backward,0,3,4,0,8672,8672,1,1569
122-C-9-4-2,1,backward,0,4,4,1,9642,9642,1,1952
122-C-9-4-2,1,backward,0,5,5,0,08563,08563,1,1884
122-C-9-4-2,1,backward,0,6,5,1,13456,13456,1,8772
122-C-9-4-2,1,backward,0,7,6,0,580643,580643,1,2607
122-C-9-4-2,1,backward,0,8,6,1,785916,585916,0,2623
122-C-9-4-2,1,backward,0,9,7,0,5734980,7354980,0,4080
122-C-9-4-2,1,backward,0,10,7,1,7214098,6372098,0,4976
123-C-10-4-5,1,backward,0,1,3,0,256,256,1,1064
123-C-10-4-5,1,backward,0,2,3,1,875,875,1,1147
123-C-10-4-5,1,backward,0,3,4,0,3428,3428,1,2346
123-C-10-4-5,1,backward,0,4,4,1,6307,6307,1,2221
123-C-10-4-5,1,backward,0,5,5,0,39678,15454,0,1473
123-C-10-4-5,1,backward,0,6,5,1,50789,65151,0,1290
123-C-11-4-5,1,backward,0,1,3,0,834,834,1,1167
123-C-11-4-5,1,backward,0,2,3,1,968,968,1,1398
123-C-11-4-5,1,backward,0,3,4,0,6309,6309,1,1507
123-C-11-4-5,1,backward,0,4,4,1,5194,1594,0,1723
123-C-11-4-5,1,backward,0,5,5,0,03652,33645,0,1793
123-C-11-4-5,1,backward,0,6,5,1,35617,36517,0,1807
123-C-12-1-7,1,backward,0,1,3,0,329,329,1,1024
123-C-12-1-7,1,backward,0,2,3,1,785,785,1,2133
123-C-12-1-7,1,backward,0,3,4,0,2896,2896,1,1574
123-C-12-1-7,1,backward,0,4,4,1,0715,0715,1,2032
123-C-12-1-7,1,backward,0,5,5,0,82307,16454,0,1839
123-C-12-1-7,1,backward,0,6,5,1,93208,54654,0,1008
123-C-2-1-7,1,backward,0,1,3,0,418,418,1,1098
123-C-2-1-7,1,backward,0,2,3,1,493,493,1,3110
123-C-2-1-7,1,backward,0,3,4,0,3820,3820,1,2894
123-C-2-1-7,1,backward,0,4,4,1,8514,8514,1,4365
123-C-2-1-7,1,backward,0,5,5,0,63824,63824,1,6963
123-C-2-1-7,1,backward,0,6,5,1,14360,14360,1,3889
123-C-2-1-7,1,backward,0,7,6,0,087439,087439,1,9370
123-C-2-1-7,1,backward,0,8,6,1,492615,492615,1,6667
123-C-2-1-7,1,backward,0,9,7,0,9326817,9326817,1,7003
123-C-2-1-7,1,backward,0,10,7,1,6970432,6970432,1,9128
123-C-2-1-7,1,backward,0,11,8,0,86453071,86453071,1,7341
123-C-2-1-7,1,backward,0,12,8,1,15278640,15278610,0,5448
123-C-2-1-7,1,backward,0,13,9,0,864529107,864529107,1,9450
123-C-2-1-7,1,backward,0,14,9,1,704651829,704651829,1,7170
123-C-2-1-7,1,backward,0,15,10,0,5926108347,2032023203,0,2278
123-C-2-1-7,1,backward,0,16,10,1,9683702415,4444444451,0,2491
123-C-3-2-6,1,backward,0,1,3,0,614,614,1,1358
123-C-3-2-6,1,backward,0,2,3,1,961,961,1,1708
123-C-3-2-6,1,backward,0,3,4,0,9423,9423,1,3840
123-C-3-2-6,1,backward,0,4,4,1,1794,1794,1,2875
123-C-3-2-6,1,backward,0,5,5,0,10723,10723,1,4993
123-C-3-2-6,1,backward,0,6,5,1,87916,87916,1,5252
123-C-3-2-6,1,backward,0,7,6,0,167053,167053,1,8256
123-C-3-2-6,1,backward,0,8,6,1,450269,450269,1,5240
123-C-3-2-6,1,backward,0,9,7,0,7620193,7620193,1,8926
123-C-3-2-6,1,backward,0,10,7,1,9581234,9581234,1,5025
123-C-3-2-6,1,backward,0,11,8,0,83964217,83964217,1,9005
123-C-3-2-6,1,backward,0,12,8,1,97856320,97856320,1,9026
123-C-3-2-6,1,backward,0,13,9,0,602741839,602741839,1,6740
123-C-3-2-6,1,backward,0,14,9,1,870149653,870149653,1,8147
123-C-3-2-6,1,backward,0,15,10,0,7019452683,7019452683,1,6925
123-C-3-2-6,1,backward,0,16,10,1,0795834261,0795832461,0,8309
123-C-4-3-5,1,backward,0,1,3,0,075,075,1,993
123-C-4-3-5,1,backward,0,2,3,1,138,138,1,2142
123-C-4-3-5,1,backward,0,3,4,0,0167,0167,1,3310
123-C-4-3-5,1,backward,0,4,4,1,8603,8603,1,2965
123-C-4-3-5,1,backward,0,5,5,0,83529,83529,1,6291
123-C-4-3-5,1,backward,0,6,5,1,05712,05712,1,5571
123-C-4-3-5,1,backward,0,7,6,0,726381,726381,1,5955
123-C-4-3-5,1,backward,0,8,6,1,762983,762983,1,9251
123-C-4-3-5,1,backward,0,9,7,0,0591783,0591783,1,10422
123-C-4-3-5,1,backward,0,10,7,1,6743052,6743052,1,8428
123-C-4-3-5,1,backward,0,11,8,0,70238165,70238165,1,5563
123-C-4-3-5,1,backward,0,12,8,1,87315924,87315924,1,8726
123-C-4-3-5,1,backward,0,13,9,0,641730895,641730895,1,5845
123-C-4-3-5,1,backward,0,14,9,1,397265410,397265410,1,7283
123-C-4-3-5,1,backward,0,15,10,0,8563014927,8563012947,0,6828
123-C-4-3-5,1,backward,0,16,10,1,0841576293,1553214652,0,6244
123-C-5-4-3,1,backward,0,1,3,0,935,935,1,3559
123-C-5-4-3,1,backward,0,2,3,1,978,978,1,2886
123-C-5-4-3,1,backward,0,3,4,0,9631,9631,1,1887
123-C-5-4-3,1,backward,0,4,4,1,2380,2380,1,2389
123-C-5-4-3,1,backward,0,5,5,0,83546,83546,1,5147
123-C-5-4-3,1,backward,0,6,5,1,51378,51378,1,2944
123-C-5-4-3,1,backward,0,7,6,0,897431,897431,1,3679
123-C-5-4-3,1,backward,0,8,6,1,043168,403168,0,4976
123-C-5-4-3,1,backward,0,9,7,0,7985463,5689463,0,2600
123-C-5-4-3,1,backward,0,10,7,1,3645281,7563254,0,2531
123-C-6-3-3,1,backward,0,1,3,0,975,975,1,923
123-C-6-3-3,1,backward,0,2,3,1,974,974,1,1723
123-C-6-3-3,1,backward,0,3,4,0,1294,1294,1,1844
123-C-6-3-3,1,backward,0,4,4,1,4091,4091,1,2951
123-C-6-3-3,1,backward,0,5,5,0,65148,65148,1,8154
123-C-6-3-3,1,backward,0,6,5,1,52631,52631,1,5338
123-C-6-3-3,1,backward,0,7,6,0,167032,456789,0,1460
123-C-6-3-3,1,backward,0,8,6,1,850613,456789,0,1841
123-C-7-3-7,1,backward,0,1,3,0,571,571,1,1190
123-C-7-3-7,1,backward,0,2,3,1,207,207,1,1059
123-C-7-3-7,1,backward,0,3,4,0,4635,4635,1,2309
123-C-7-3-7,1,backward,0,4,4,1,8294,8294,1,3190
123-C-7-3-7,1,backward,0,5,5,0,04937,04937,1,5761
123-C-7-3-7,1,backward,0,6,5,1,32910,32910,1,4905
123-C-7-3-7,1,backward,0,7,6,0,827539,827539,1,4383
123-C-7-3-7,1,backward,0,8,6,1,840327,840327,1,3766
123-C-7-3-7,1,backward,0,9,7,0,8693751,8693751,1,4488
123-C-7-3-7,1,backward,0,10,7,1,8961734,8961734,1,7250
123-C-7-3-7,1,backward,0,11,8,0,96754281,86754281,0,7851
123-C-7-3-7,1,backward,0,12,8,1,59870423,87654321,0,17067
123-C-8-2-4,1,backward,0,1,3,0,183,183,1,840
123-C-8-2-4,1,backward,0,2,3,1,560,560,1,920
123-C-8-2-4,1,backward,0,3,4,0,0689,6989,0,1087
123-C-8-2-4,1,backward,0,4,4,1,9315,2512,0,896
123-C-9-1-3,1,backward,0,1,3,0,187,187,1,1320
123-C-9-1-3,1,backward,0,2,3,1,508,508,1,856
123-C-9-1-3,1,backward,0,3,4,0,0451,0451,1,1542
123-C-9-1-3,1,backward,0,4,4,1,9487,4987,0,1865
123-C-9-1-3,1,backward,0,5,5,0,60173,54654,0,1293
123-C-9-1-3,1,backward,0,6,5,1,82793,61251,0,1195
216-C-1-3-1,1,backward,0,1,3,0,358,358,1,6751
216-C-1-3-1,1,backward,0,2,3,1,807,807,1,2133
216-C-1-3-1,1,backward,0,3,4,0,9072,9072,1,3024
216-C-1-3-1,1,backward,0,4,4,1,2740,2740,1,3046
216-C-1-3-1,1,backward,0,5,5,0,87103,87103,1,4913
216-C-1-3-1,1,backward,0,6,5,1,26031,26031,1,8642
216-C-1-3-1,1,backward,0,7,6,0,420519,420519,1,7052
216-C-1-3-1,1,backward,0,8,6,1,570218,570218,1,6571
216-C-1-3-1,1,backward,0,9,7,0,9256713,9215673,0,15417
216-C-1-3-1,1,backward,0,10,7,1,3607291,3609271,0,9256
216-C-2-4-2,1,backward,0,1,3,0,710,710,1,2614
216-C-2-4-2,1,backward,0,2,3,1,954,954,1,1560
216-C-2-4-2,1,backward,0,3,4,0,6310,6310,1,2055
216-C-2-4-2,1,backward,0,4,4,1,5904,5904,1,3902
216-C-2-4-2,1,backward,0,5,5,0,18549,18549,1,4708
216-C-2-4-2,1,backward,0,6,5,1,83219,83219,1,3643
216-C-2-4-2,1,backward,0,7,6,0,612359,612359,1,6895
216-C-2-4-2,1,backward,0,8,6,1,193468,193468,1,5583
216-C-2-4-2,1,backward,0,9,7,0,7243190,7243190,1,15519
216-C-2-4-2,1,backward,0,10,7,1,3408917,3408917,1,12729
216-C-2-4-2,1,backward,0,11,8,0,01427538,014----8,0,31334
216-C-2-4-2,1,backward,0,12,8,1,27893154,07893514,0,13039
216-C-3-1-1,1,backward,0,1,3,0,983,983,1,2020
216-C-3-1-1,1,backward,0,2,3,1,780,780,1,2659
216-C-3-1-1,1,backward,0,3,4,0,4985,4985,1,2280
216-C-3-1-1,1,backward,0,4,4,1,3460,3460,1,1719
216-C-3-1-1,1,backward,0,5,5,0,09271,09271,1,3692
216-C-3-1-1,1,backward,0,6,5,1,12705,12705,1,4298
216-C-3-1-1,1,backward,0,7,6,0,956487,956487,1,6655
216-C-3-1-1,1,backward,0,8,6,1,157842,157842,1,4610
216-C-3-1-1,1,backward,0,9,7,0,0326419,0326491,0,6533
216-C-3-1-1,1,backward,0,10,7,1,0561248,0561248,1,5987
216-C-3-1-1,1,backward,0,11,8,0,74395861,12350748,0,20986
216-C-3-1-1,1,backward,0,12,8,1,56127043,91657803,0,7338
216-C-4-2-6,1,backward,0,1,3,0,607,607,1,1138
216-C-4-2-6,1,backward,0,2,3,1,169,169,1,918
216-C-4-2-6,1,backward,0,3,4,0,8937,8937,1,1935
216-C-4-2-6,1,backward,0,4,4,1,3542,3542,1,2326
216-C-4-2-6,1,backward,0,5,5,0,23671,23671,1,2906
216-C-4-2-6,1,backward,0,6,5,1,31725,31725,1,5167
216-C-4-2-6,1,backward,0,7,6,0,168975,168975,1,5433
216-C-4-2-6,1,backward,0,8,6,1,902473,374209,0,1747
216-C-4-2-6,1,backward,0,9,7,0,6832745,6832745,1,6886
216-C-4-2-6,1,backward,0,10,7,1,9835610,<kp_enter>983610,0,7830
216-C-4-2-6,1,backward,0,11,8,0,43190675,<kp_enter>3190567,0,7277
216-C-4-2-6,1,backward,0,12,8,1,86542917,89675309,0,5044
3001-C-1-2-6,1,backward,0,1,3,0,487,487,1,3349
3001-C-1-2-6,1,backward,0,2,3,1,329,329,1,2947
3001-C-1-2-6,1,backward,0,3,4,0,2098,2098,1,2513
3001-C-1-2-6,1,backward,0,4,4,1,5280,5280,1,3311
3001-C-1-2-6,1,backward,0,5,5,0,27816,27816,1,14562
3001-C-1-2-6,1,backward,0,6,5,1,72894,72894,1,19290
3001-C-1-2-6,1,backward,0,7,6,0,561038,561038,1,5993
3001-C-1-2-6,1,backward,0,8,6,1,984710,984710,1,6604
3001-C-1-2-6,1,backward,0,9,7,0,1823764,1823764,1,5477
3001-C-1-2-6,1,backward,0,10,7,1,1034289,1034289,1,5135
3001-C-1-2-6,1,backward,0,11,8,0,60523748,29067348,0,10007
3001-C-1-2-6,1,backward,0,12,8,1,63897501,__<kp_enter>55501,0,2607
327-B-1-3-4,1,backward,0,1,3,0,193,193,1,3104
327-B-1-3-4,1,backward,0,2,3,1,934,934,1,1616
327-B-1-3-4,1,backward,0,3,4,0,6132,6132,1,2104
327-B-1-3-4,1,backward,0,4,4,1,3260,3620,0,2366
327-B-1-3-4,1,backward,0,5,5,0,45796,45796,1,2691
327-B-1-3-4,1,backward,0,6,5,1,82741,68741,0,3012
327-B-1-3-4,1,backward,0,7,6,0,275168,<kp_enter>75168,0,4838
327-B-1-3-4,1,backward,0,8,6,1,058364,785364,0,8446
327-B-2-1-3,1,backward,0,1,3,0,412,412,1,1424
327-B-2-1-3,1,backward,0,2,3,1,307,307,1,1678
327-B-2-1-3,1,backward,0,3,4,0,7486,7486,1,1353
327-B-2-1-3,1,backward,0,4,4,1,3809,3809,1,1456
327-B-2-1-3,1,backward,0,5,5,0,28574,28574,1,2334
327-B-2-1-3,1,backward,0,6,5,1,58306,85306,0,2606
327-B-2-1-3,1,backward,0,7,6,0,026593,206593,0,2888
327-B-2-1-3,1,backward,0,8,6,1,401569,201569,0,6510
327-B-3-2-1,1,backward,0,1,3,0,540,094,0,4534
327-B-3-2-1,1,backward,0,2,3,1,059,059,1,2081
327-B-3-2-1,1,backward,0,3,4,0,7685,9765,0,4357
327-B-3-2-1,1,backward,0,4,4,1,6932,9632,0,2197
327-B-4-4-1,1,backward,0,1,3,0,860,860,1,2747
327-B-4-4-1,1,backward,0,2,3,1,681,681,1,3394
327-B-4-4-1,1,backward,0,3,4,0,9264,9264,1,3862
327-B-4-4-1,1,backward,0,4,4,1,3107,3107,1,6598
327-B-4-4-1,1,backward,0,5,5,0,61894,16894,0,2518
327-B-4-4-1,1,backward,0,6,5,1,60475,06475,0,3663
656-C-10-4-2,1,backward,0,1,3,0,029,029,1,1669
656-C-10-4-2,1,backward,0,2,3,1,928,928,1,2318
656-C-10-4-2,1,backward,0,3,4,0,3502,3502,1,2767
656-C-10-4-2,1,backward,0,4,4,1,3821,3821,1,2436
656-C-10-4-2,1,backward,0,5,5,0,61780,61780,1,3648
656-C-10-4-2,1,backward,0,6,5,1,60783,60783,1,4985
656-C-10-4-2,1,backward,0,7,6,0,974236,463247,0,5531
656-C-10-4-2,1,backward,0,8,6,1,135286,213586,0,4537
656-C-1-2-1,1,backward,0,1,3,0,860,860,1,8623
656-C-1-2-1,1,backward,0,2,3,1,237,237,1,3356
656-C-1-2-1,1,backward,0,3,4,0,5630,5630,1,8644
656-C-1-2-1,1,backward,0,4,4,1,8735,8735,1,6407
656-C-1-2-1,1,backward,0,5,5,0,58274,58274,1,29618
656-C-1-2-1,1,backward,0,6,5,1,50684,50684,1,9014
656-C-1-2-1,1,backward,0,7,6,0,562147,562417,0,32227
656-C-1-2-1,1,backward,0,8,6,1,309548,305948,0,26706
656-C-2-4-3,1,backward,0,1,3,0,361,361,1,3758
656-C-2-4-3,1,backward,0,2,3,1,743,743,1,2332
656-C-2-4-3,1,backward,0,3,4,0,9726,7926,0,4305
656-C-2-4-3,1,backward,0,4,4,1,4793,4793,1,4296
656-C-2-4-3,1,backward,0,5,5,0,13548,13548,1,5349
656-C-2-4-3,1,backward,0,6,5,1,37192,17392,0,4029
656-C-2-4-3,1,backward,0,7,6,0,243710,456465,0,1862
656-C-2-4-3,1,backward,0,8,6,1,872064,778765,0,3004
656-C-3-1-1,1,backward,0,1,3,0,283,283,1,10306
656-C-3-1-1,1,backward,0,2,3,1,812,812,1,3689
656-C-3-1-1,1,backward,0,3,4,0,4837,4837,1,5788
656-C-3-1-1,1,backward,0,4,4,1,4589,5489,0,6846
656-C-3-1-1,1,backward,0,5,5,0,70358,70358,1,7790
656-C-3-1-1,1,backward,0,6,5,1,47028,47028,1,11895
656-C-3-1-1,1,backward,0,7,6,0,302645,345324,0,3013
656-C-3-1-1,1,backward,0,8,6,1,084973,084973,1,13842
656-C-3-1-1,1,backward,0,9,7,0,8295170,2895170,0,20013
656-C-3-1-1,1,backward,0,10,7,1,1203649,1203649,1,16537
656-C-3-1-1,1,backward,0,11,8,0,21649758,71249758,0,11348
656-C-3-1-1,1,backward,0,12,8,1,63581920,25387920,0,9581
656-C-5-3-4,1,backward,0,1,3,0,578,578,1,2426
656-C-5-3-4,1,backward,0,2,3,1,721,721,1,1843
656-C-5-3-4,1,backward,0,3,4,0,7390,7390,1,2790
656-C-5-3-4,1,backward,0,4,4,1,3780,3780,1,3660
656-C-5-3-4,1,backward,0,5,5,0,94572,94572,1,7633
656-C-5-3-4,1,backward,0,6,5,1,85963,85963,1,4397
656-C-5-3-4,1,backward,0,7,6,0,519784,519784,1,12085
656-C-5-3-4,1,backward,0,8,6,1,176485,176485,1,8255
656-C-5-3-4,1,backward,0,9,7,0,4319250,4319250,1,10688
656-C-5-3-4,1,backward,0,10,7,1,8760243,8760243,1,10450
656-C-5-3-4,1,backward,0,11,8,0,45029861,54029816,0,10300
656-C-5-3-4,1,backward,0,12,8,1,02164389,02164389,1,10419
656-C-5-3-4,1,backward,0,13,9,0,064531987,265430987,0,8664
656-C-5-3-4,1,backward,0,14,9,1,501342986,547392986,0,16243
656-C-6-4-2,1,backward,0,1,3,0,201,201,1,1543
656-C-6-4-2,1,backward,0,2,3,1,302,302,1,1491
656-C-6-4-2,1,backward,0,3,4,0,5029,5209,0,6915
656-C-6-4-2,1,backward,0,4,4,1,4653,4653,1,3378
656-C-6-4-2,1,backward,0,5,5,0,37250,73250,0,6268
656-C-6-4-2,1,backward,0,6,5,1,78102,87102,0,5650
656-C-7-1-3,1,backward,0,1,3,0,735,735,1,5447
656-C-7-1-3,1,backward,0,2,3,1,471,471,1,3377
656-C-7-1-3,1,backward,0,3,4,0,6478,6478,1,8829
656-C-7-1-3,1,backward,0,4,4,1,0813,0813,1,3138
656-C-7-1-3,1,backward,0,5,5,0,23074,23074,1,6286
656-C-7-1-3,1,backward,0,6,5,1,76195,76195,1,4482
656-C-7-1-3,1,backward,0,7,6,0,183954,183954,1,8203
656-C-7-1-3,1,backward,0,8,6,1,985237,985237,1,8931
656-C-7-1-3,1,backward,0,9,7,0,0547392,_<kp_enter>57392,0,19417
656-C-7-1-3,1,backward,0,10,7,1,5482906,5482906,1,14309
656-C-7-1-3,1,backward,0,11,8,0,86194350,86194350,1,18153
656-C-7-1-3,1,backward,0,12,8,1,12756839,___<kp_enter>6839,0,21549
656-C-7-1-3,1,backward,0,13,9,0,974306128,479306128,0,18721
656-C-7-1-3,1,backward,0,14,9,1,853671024,_________,0,797
656-C-8-2-5,1,backward,0,1,3,0,368,368,1,1825
656-C-8-2-5,1,backward,0,2,3,1,173,173,1,1536
656-C-8-2-5,1,backward,0,3,4,0,6125,6125,1,3287
656-C-8-2-5,1,backward,0,4,4,1,5740,5740,1,2695
656-C-8-2-5,1,backward,0,5,5,0,40218,42018,0,4944
656-C-8-2-5,1,backward,0,6,5,1,82361,20861,0,4190
656-C-9-3-4,1,backward,0,1,3,0,419,419,1,1814
656-C-9-3-4,1,backward,0,2,3,1,102,102,1,1992
656-C-9-3-4,1,backward,0,3,4,0,6318,6138,0,3460
656-C-9-3-4,1,backward,0,4,4,1,1872,1872,1,8513
656-C-9-3-4,1,backward,0,5,5,0,91347,91347,1,4441
656-C-9-3-4,1,backward,0,6,5,1,67231,67231,1,6018
656-C-9-3-4,1,backward,0,7,6,0,123876,123876,1,5954
656-C-9-3-4,1,backward,0,8,6,1,913758,913758,1,7078
656-C-9-3-4,1,backward,0,9,7,0,5706439,5137439,0,11039
656-C-9-3-4,1,backward,0,10,7,1,9384012,9734012,0,14386
777-C-1-4-1,1,backward,0,1,3,0,564,564,1,3303
777-C-1-4-1,1,backward,0,2,3,1,538,358,0,2946
777-C-1-4-1,1,backward,0,3,4,0,4871,4871,1,2884
777-C-1-4-1,1,backward,0,4,4,1,7319,7319,1,3374
777-C-1-4-1,1,backward,0,5,5,0,14528,_4528,0,6962
777-C-1-4-1,1,backward,0,6,5,1,56049,10549,0,12628
777-C-2-4-6,1,backward,0,1,3,0,289,289,1,1229
777-C-2-4-6,1,backward,0,2,3,1,842,842,1,1980
777-C-2-4-6,1,backward,0,3,4,0,2538,2538,1,6182
777-C-2-4-6,1,backward,0,4,4,1,5431,1345,0,4415
777-C-2-4-6,1,backward,0,5,5,0,91520,19250,0,5760
777-C-2-4-6,1,backward,0,6,5,1,72840,12480,0,7611
777-C-3-2-6,1,backward,0,1,3,0,609,109,0,2000
777-C-3-2-6,1,backward,0,2,3,1,614,614,1,1964
777-C-3-2-6,1,backward,0,3,4,0,9317,9317,1,2560
777-C-3-2-6,1,backward,0,4,4,1,0318,0318,1,2647
777-C-3-2-6,1,backward,0,5,5,0,85342,85342,1,3345
777-C-3-2-6,1,backward,0,6,5,1,86501,86501,1,2969
777-C-3-2-6,1,backward,0,7,6,0,659703,659703,1,6531
777-C-3-2-6,1,backward,0,8,6,1,652317,652317,1,6813
777-C-3-2-6,1,backward,0,9,7,0,0386495,0186495,0,10720
777-C-3-2-6,1,backward,0,10,7,1,0937582,0379582,0,4298
777-C-4-2-5,1,backward,0,1,3,0,290,290,1,1149
777-C-4-2-5,1,backward,0,2,3,1,249,249,1,1574
777-C-4-2-5,1,backward,0,3,4,0,8412,8142,0,4857
777-C-4-2-5,1,backward,0,4,4,1,5067,5067,1,2864
777-C-4-2-5,1,backward,0,5,5,0,69158,96518,0,7903
777-C-4-2-5,1,backward,0,6,5,1,63784,36784,0,3506
777-C-5-3-4,1,backward,0,1,3,0,874,874,1,1056
777-C-5-3-4,1,backward,0,2,3,1,964,964,1,1060
777-C-5-3-4,1,backward,0,3,4,0,1589,5189,0,1855
777-C-5-3-4,1,backward,0,4,4,1,7459,7549,0,2510
777-C-6-3-3,1,backward,0,1,3,0,283,283,1,1480
777-C-6-3-3,1,backward,0,2,3,1,359,359,1,1669
777-C-6-3-3,1,backward,0,3,4,0,8927,8297,0,2574
777-C-6-3-3,1,backward,0,4,4,1,6701,6701,1,1668
777-C-6-3-3,1,backward,0,5,5,0,45187,54187,0,6512
777-C-6-3-3,1,backward,0,6,5,1,75936,79536,0,4459
EJS-B-1-1-8,1,backward,0,1,3,0,562,562,1,2440
EJS-B-1-1-8,1,backward,0,2,3,1,275,275,1,2996
EJS-B-1-1-8,1,backward,0,3,4,0,9472,9472,1,6026
EJS-B-1-1-8,1,backward,0,4,4,1,3261,3261,1,6529
EJS-B-1-1-8,1,backward,0,5,5,0,62340,32340,0,5407
EJS-B-1-1-8,1,backward,0,6,5,1,25183,25813,0,11637
EJS-B-2-2-4,1,backward,0,1,3,0,078,078,1,2026
EJS-B-2-2-4,1,backward,0,2,3,1,361,163,0,2802
EJS-B-2-2-4,1,backward,0,3,4,0,6307,6307,1,4533
EJS-B-2-2-4,1,backward,0,4,4,1,4860,4680,0,4801
EJS-B-2-2-4,1,backward,0,5,5,0,25904,25904,1,9517
EJS-B-2-2-4,1,backward,0,6,5,1,54821,54821,1,8747
EJS-B-2-2-4,1,backward,0,7,6,0,587492,587492,1,10468
EJS-B-2-2-4,1,backward,0,8,6,1,456317,456317,1,12426
EJS-B-2-2-4,1,backward,0,9,7,0,7680532,7680352,0,18877
EJS-B-2-2-4,1,backward,0,10,7,1,6870295,4327059,0,19693
EJS-B-3-4-3,1,backward,0,1,3,0,301,301,1,1859
EJS-B-3-4-3,1,backward,0,2,3,1,647,674,0,1585
EJS-B-3-4-3,1,backward,0,3,4,0,1806,1806,1,4335
EJS-B-3-4-3,1,backward,0,4,4,1,4718,4718,1,5781
EJS-B-3-4-3,1,backward,0,5,5,0,82504,82504,1,11960
EJS-B-3-4-3,1,backward,0,6,5,1,03652,03652,1,7340
EJS-B-3-4-3,1,backward,0,7,6,0,031582,031582,1,8379
EJS-B-3-4-3,1,backward,0,8,6,1,816475,816475,1,6572
EJS-B-3-4-3,1,backward,0,9,7,0,0825193,0825193,1,7092
EJS-B-3-4-3,1,backward,0,10,7,1,0682591,0682591,1,13604
EJS-B-3-4-3,1,backward,0,11,8,0,12640397,06241397,0,20418
EJS-B-3-4-3,1,backward,0,12,8,1,30671582,30671582,1,11077
EJS-B-3-4-3,1,backward,0,13,9,0,182490367,567890367,0,7245
EJS-B-3-4-3,1,backward,0,14,9,1,487029361,158920361,0,22595
EJS-B-4-3-7,1,backward,0,1,3,0,692,692,1,3126
EJS-B-4-3-7,1,backward,0,2,3,1,937,737,0,4357
EJS-B-4-3-7,1,backward,0,3,4,0,4310,4310,1,2045
EJS-B-4-3-7,1,backward,0,4,4,1,9016,9016,1,3383
EJS-B-4-3-7,1,backward,0,5,5,0,05394,05394,1,2980
EJS-B-4-3-7,1,backward,0,6,5,1,03261,03261,1,6057
EJS-B-4-3-7,1,backward,0,7,6,0,718632,718632,1,8719
EJS-B-4-3-7,1,backward,0,8,6,1,428579,482579,0,8873
EJS-B-4-3-7,1,backward,0,9,7,0,5801942,5801942,1,11481
EJS-B-4-3-7,1,backward,0,10,7,1,1094762,1490762,0,12495
EJS-B-4-3-7,1,backward,0,11,8,0,43819076,43819076,1,8471
EJS-B-4-3-7,1,backward,0,12,8,1,53748219,52748219,0,9610
EJS-B-4-3-7,1,backward,0,13,9,0,317894562,317894562,1,16740
EJS-B-4-3-7,1,backward,0,14,9,1,485706231,485760231,0,20559
EJS-B-4-3-7,1,backward,0,15,10,0,8127034965,8120349765,0,18217
EJS-B-4-3-7,1,backward,0,16,10,1,9723685401,9723685401,1,16837
EJS-B-5-1-7,1,backward,0,1,3,0,860,860,1,3382
EJS-B-5-1-7,1,backward,0,2,3,1,367,367,1,1668
EJS-B-5-1-7,1,backward,0,3,4,0,7192,7192,1,6940
EJS-B-5-1-7,1,backward,0,4,4,1,2817,2817,1,3717
EJS-B-5-1-7,1,backward,0,5,5,0,07135,07135,1,5184
EJS-B-5-1-7,1,backward,0,6,5,1,04357,04357,1,8071
EJS-B-5-1-7,1,backward,0,7,6,0,420568,420468,0,7918
EJS-B-5-1-7,1,backward,0,8,6,1,580792,520702,0,7555
122-C-10-3-4,1,forward,0,1,3,0,510,510,1,1387
122-C-10-3-4,1,forward,0,2,3,1,685,685,1,1680
122-C-10-3-4,1,forward,0,3,4,0,1835,1835,1,1557
122-C-10-3-4,1,forward,0,4,4,1,0217,0217,1,1908
122-C-10-3-4,1,forward,0,5,5,0,91245,91285,0,5614
122-C-10-3-4,1,forward,0,6,5,1,10638,01638,0,2726
122-C-11-1-5,1,forward,0,1,3,0,709,709,1,2980
122-C-11-1-5,1,forward,0,2,3,1,610,610,1,960
122-C-11-1-5,1,forward,0,3,4,0,4216,4216,1,1140
122-C-11-1-5,1,forward,0,4,4,1,9584,9584,1,1504
122-C-11-1-5,1,forward,0,5,5,0,52461,52461,1,1746
122-C-11-1-5,1,forward,0,6,5,1,29406,29406,1,2139
122-C-11-1-5,1,forward,0,7,6,0,470251,470251,1,5223
122-C-11-1-5,1,forward,0,8,6,1,723905,723905,1,2643
122-C-11-1-5,1,forward,0,9,7,0,8259643,8276934,0,11218
122-C-11-1-5,1,forward,0,10,7,1,0576834,0576834,1,3418
122-C-11-1-5,1,forward,0,11,8,0,68704512,68704592,0,4503
122-C-11-1-5,1,forward,0,12,8,1,81420965,81420965,1,3612
122-C-11-1-5,1,forward,0,13,9,0,941387652,814967032,0,12005
122-C-11-1-5,1,forward,0,14,9,1,109542387,109857238,0,23458
122-C-1-2-1,1,forward,0,1,3,0,056,056,1,4341
122-C-1-2-1,1,forward,0,2,3,1,541,541,1,2075
122-C-1-2-1,1,forward,0,3,4,0,1305,1305,1,2536
122-C-1-2-1,1,forward,0,4,4,1,1928,1928,1,2751
122-C-1-2-1,1,forward,0,5,5,0,04371,04371,1,2468
122-C-1-2-1,1,forward,0,6,5,1,91865,91865,1,2754
122-C-1-2-1,1,forward,0,7,6,0,491076,491076,1,4171
122-C-1-2-1,1,forward,0,8,6,1,176439,176439,1,3746
122-C-1-2-1,1,forward,0,9,7,0,3970516,3970516,1,4024
122-C-1-2-1,1,forward,0,10,7,1,2038491,2039481,0,4482
122-C-1-2-1,1,forward,0,11,8,0,04562781,04562781,1,3870
122-C-1-2-1,1,forward,0,12,8,1,98403256,98405621,0,7544
122-C-1-2-1,1,forward,0,13,9,0,640372519,045672171,0,7219
122-C-1-2-1,1,forward,0,14,9,1,364820579,483620589,0,6806
122-C-12-3-1,1,forward,0,1,3,0,586,586,1,1075
122-C-12-3-1,1,forward,0,2,3,1,468,468,1,1000
122-C-12-3-1,1,forward,0,3,4,0,7623,7623,1,2175
122-C-12-3-1,1,forward,0,4,4,1,9410,9410,1,1617
122-C-12-3-1,1,forward,0,5,5,0,12593,12593,1,1933
122-C-12-3-1,1,forward,0,6,5,1,81593,81593,1,2456
122-C-12-3-1,1,forward,0,7,6,0,864203,864203,1,2103
122-C-12-3-1,1,forward,0,8,6,1,860791,064791,0,5009
122-C-12-3-1,1,forward,0,9,7,0,7869123,7869123,1,4473
122-C-12-3-1,1,forward,0,10,7,1,7352094,7252034,0,7235
122-C-12-3-1,1,forward,0,11,8,0,57039184,57039164,0,4632
122-C-12-3-1,1,forward,0,12,8,1,36840215,36840215,1,3298
122-C-12-3-1,1,forward,0,13,9,0,719386425,470386245,0,7638
122-C-12-3-1,1,forward,0,14,9,1,279135068,306472508,0,8117
122-C-2-3-1,1,forward,0,1,3,0,547,547,1,1937
122-C-2-3-1,1,forward,0,2,3,1,594,594,1,1982
122-C-2-3-1,1,forward,0,3,4,0,8194,8194,1,1947
122-C-2-3-1,1,forward,0,4,4,1,9452,9452,1,1870
122-C-2-3-1,1,forward,0,5,5,0,18235,18235,1,2054
122-C-2-3-1,1,forward,0,6,5,1,62308,62308,1,2740
122-C-2-3-1,1,forward,0,7,6,0,362715,362718,0,3609
122-C-2-3-1,1,forward,0,8,6,1,547968,547981,0,7309
122-C-3-4-3,1,forward,0,1,3,0,164,164,1,1835
122-C-3-4-3,1,forward,0,2,3,1,180,180,1,2074
122-C-3-4-3,1,forward,0,3,4,0,0249,0249,1,2366
122-C-3-4-3,1,forward,0,4,4,1,3071,3071,1,2263
122-C-3-4-3,1,forward,0,5,5,0,03518,03518,1,2254
122-C-3-4-3,1,forward,0,6,5,1,92584,92514,0,2782
122-C-3-4-3,1,forward,0,7,6,0,286394,286394,1,1733
122-C-3-4-3,1,forward,0,8,6,1,069135,086391,0,2898
122-C-3-4-3,1,forward,0,9,7,0,9347156,9147168,0,5648
122-C-3-4-3,1,forward,0,10,7,1,9031857,9031857,1,2678
122-C-3-4-3,1,forward,0,11,8,0,87951402,87951402,1,6702
122-C-3-4-3,1,forward,0,12,8,1,39267845,35962842,0,6336
122-C-3-4-3,1,forward,0,13,9,0,743281695,749265021,0,3566
122-C-3-4-3,1,forward,0,14,9,1,615943870,634157091,0,6386
122-C-4-1-7,1,forward,0,1,3,0,283,283,1,1516
122-C-4-1-7,1,forward,0,2,3,1,261,261,1,648
122-C-4-1-7,1,forward,0,3,4,0,4635,4635,1,1493
122-C-4-1-7,1,forward,0,4,4,1,7314,7314,1,1836
122-C-4-1-7,1,forward,0,5,5,0,47329,47329,1,1432
122-C-4-1-7,1,forward,0,6,5,1,45918,47918,0,2592
122-C-4-1-7,1,forward,0,7,6,0,384769,483769,0,2256
122-C-4-1-7,1,forward,0,8,6,1,510496,571638,0,4309
122-C-5-3-5,1,forward,0,1,3,0,239,239,1,1378
122-C-5-3-5,1,forward,0,2,3,1,732,732,1,1135
122-C-5-3-5,1,forward,0,3,4,0,3680,3680,1,1752
122-C-5-3-5,1,forward,0,4,4,1,3506,3506,1,1901
122-C-5-3-5,1,forward,0,5,5,0,67520,37520,0,1787
122-C-5-3-5,1,forward,0,6,5,1,96145,96145,1,2143
122-C-5-3-5,1,forward,0,7,6,0,025648,025648,1,2062
122-C-5-3-5,1,forward,0,8,6,1,376489,376489,1,2271
122-C-5-3-5,1,forward,0,9,7,0,0138459,0841359,0,3021
122-C-5-3-5,1,forward,0,10,7,1,4169238,4169248,0,2289
122-C-6-4-2,1,forward,0,1,3,0,807,807,1,1381
122-C-6-4-2,1,forward,0,2,3,1,308,308,1,1333
122-C-6-4-2,1,forward,0,3,4,0,1408,1408,1,1465
122-C-6-4-2,1,forward,0,4,4,1,6325,6325,1,1019
122-C-6-4-2,1,forward,0,5,5,0,47836,47836,1,1901
122-C-6-4-2,1,forward,0,6,5,1,69271,69271,1,1919
122-C-6-4-2,1,forward,0,7,6,0,517083,517082,0,3460
122-C-6-4-2,1,forward,0,8,6,1,836529,836529,1,1532
122-C-6-4-2,1,forward,0,9,7,0,0871925,0871925,1,1762
122-C-6-4-2,1,forward,0,10,7,1,4783120,4784832,0,3640
122-C-6-4-2,1,forward,0,11,8,0,04163752,08417231,0,5139
122-C-6-4-2,1,forward,0,12,8,1,17204395,07214795,0,4430
122-C-7-1-5,1,forward,0,1,3,0,134,134,1,1642
122-C-7-1-5,1,forward,0,2,3,1,536,536,1,908
122-C-7-1-5,1,forward,0,3,4,0,6214,6214,1,880
122-C-7-1-5,1,forward,0,4,4,1,7082,7082,1,1339
122-C-7-1-5,1,forward,0,5,5,0,69573,69573,1,1655
122-C-7-1-5,1,forward,0,6,5,1,04197,04197,1,2296
122-C-7-1-5,1,forward,0,7,6,0,602753,602753,1,2276
122-C-7-1-5,1,forward,0,8,6,1,572014,572014,1,2282
122-C-7-1-5,1,forward,0,9,7,0,6752038,6752038,1,4266
122-C-7-1-5,1,forward,0,10,7,1,7593160,7593160,1,2664
122-C-7-1-5,1,forward,0,11,8,0,35046218,36426814,0,7059
122-C-7-1-5,1,forward,0,12,8,1,37840521,37840521,1,2683
122-C-7-1-5,1,forward,0,13,9,0,685923074,365902472,0,5699
122-C-7-1-5,1,forward,0,14,9,1,978605314,978602431,0,11142
122-C-8-3-5,1,forward,0,1,3,0,248,384,0,1826
122-C-8-3-5,1,forward,0,2,3,1,460,460,1,1777
122-C-8-3-5,1,forward,0,3,4,0,9601,9601,1,7825
122-C-8-3-5,1,forward,0,4,4,1,4718,4718,1,18002
122-C-8-3-5,1,forward,0,5,5,0,19470,19470,1,1481
122-C-8-3-5,1,forward,0,6,5,1,47089,47089,1,2330
122-C-8-3-5,1,forward,0,7,6,0,297563,297563,1,2928
122-C-8-3-5,1,forward,0,8,6,1,386542,386542,1,2595
122-C-8-3-5,1,forward,0,9,7,0,5982436,5982436,1,41608
122-C-8-3-5,1,forward,0,10,7,1,6417952,6417952,1,2126
122-C-8-3-5,1,forward,0,11,8,0,95201346,95201347,0,4684
122-C-8-3-5,1,forward,0,12,8,1,68479205,68479201,0,3982
122-C-9-4-7,1,forward,0,1,3,0,598,598,1,883
122-C-9-4-7,1,forward,0,2,3,1,368,368,1,945
122-C-9-4-7,1,forward,0,3,4,0,4805,4805,1,1543
122-C-9-4-7,1,forward,0,4,4,1,2630,2630,1,2709
122-C-9-4-7,1,forward,0,5,5,0,42739,42739,1,1763
122-C-9-4-7,1,forward,0,6,5,1,86913,86913,1,2563
122-C-9-4-7,1,forward,0,7,6,0,936108,936108,1,1899
122-C-9-4-7,1,forward,0,8,6,1,963058,963018,0,2818
122-C-9-4-7,1,forward,0,9,7,0,2715864,2715864,1,2939
122-C-9-4-7,1,forward,0,10,7,1,3028194,3028194,1,2963
122-C-9-4-7,1,forward,0,11,8,0,07158492,07159438,0,5346
122-C-9-4-7,1,forward,0,12,8,1,43206815,03268195,0,8370
123-C-10-4-4,1,forward,0,1,3,0,107,107,1,1100
123-C-10-4-4,1,forward,0,2,3,1,139,139,1,1199
123-C-10-4-4,1,forward,0,3,4,0,4965,4965,1,1971
123-C-10-4-4,1,forward,0,4,4,1,3296,3296,1,1387
123-C-10-4-4,1,forward,0,5,5,0,98560,98560,1,1975
123-C-10-4-4,1,forward,0,6,5,1,69108,65235,0,1495
123-C-10-4-4,1,forward,0,7,6,0,017259,55112<kp_enter>,0,1631
123-C-10-4-4,1,forward,0,8,6,1,156438,654132,0,1133
123-C-11-4-3,1,forward,0,1,3,0,137,137,1,1428
123-C-11-4-3,1,forward,0,2,3,1,617,617,1,948
123-C-11-4-3,1,forward,0,3,4,0,4357,4357,1,1324
123-C-11-4-3,1,forward,0,4,4,1,0285,0285,1,1676
123-C-11-4-3,1,forward,0,5,5,0,79430,79430,1,2103
123-C-11-4-3,1,forward,0,6,5,1,43650,43650,1,1805
123-C-11-4-3,1,forward,0,7,6,0,301249,123456,0,1450
123-C-11-4-3,1,forward,0,8,6,1,581374,656523,0,1377
123-C-12-1-6,1,forward,0,1,3,0,895,895,1,811
123-C-12-1-6,1,forward,0,2,3,1,358,358,1,906
123-C-12-1-6,1,forward,0,3,4,0,2197,2197,1,1329
123-C-12-1-6,1,forward,0,4,4,1,1627,1627,1,1562
123-C-12-1-6,1,forward,0,5,5,0,82760,82760,1,1763
123-C-12-1-6,1,forward,0,6,5,1,72130,12341,0,1152
123-C-12-1-6,1,forward,0,7,6,0,386104,65265<kp_enter>,0,862
123-C-12-1-6,1,forward,0,8,6,1,738495,444453,0,2191
123-C-2-1-1,1,forward,0,1,3,0,312,312,1,2100
123-C-2-1-1,1,forward,0,2,3,1,927,927,1,1154
123-C-2-1-1,1,forward,0,3,4,0,0354,0354,1,1361
123-C-2-1-1,1,forward,0,4,4,1,4690,4690,1,1458
123-C-2-1-1,1,forward,0,5,5,0,94271,94271,1,1694
123-C-2-1-1,1,forward,0,6,5,1,16287,16287,1,1659
123-C-2-1-1,1,forward,0,7,6,0,921306,921306,1,1880
123-C-2-1-1,1,forward,0,8,6,1,309546,309546,1,1754
123-C-2-1-1,1,forward,0,9,7,0,0231465,0231465,1,3447
123-C-2-1-1,1,forward,0,10,7,1,1943062,1943062,1,2399
123-C-2-1-1,1,forward,0,11,8,0,10547962,10547962,1,3514
123-C-2-1-1,1,forward,0,12,8,1,82973506,82973056,0,4429
123-C-2-1-1,1,forward,0,13,9,0,430612975,432067395,0,4596
123-C-2-1-1,1,forward,0,14,9,1,063529714,323656322,0,4843
123-C-3-2-1,1,forward,0,1,3,0,257,257,1,3003
123-C-3-2-1,1,forward,0,2,3,1,140,140,1,1071
123-C-3-2-1,1,forward,0,3,4,0,6297,6297,1,1107
123-C-3-2-1,1,forward,0,4,4,1,8230,8230,1,1617
123-C-3-2-1,1,forward,0,5,5,0,54038,54038,1,1466
123-C-3-2-1,1,forward,0,6,5,1,39650,39650,1,2412
123-C-3-2-1,1,forward,0,7,6,0,314068,314068,1,2084
123-C-3-2-1,1,forward,0,8,6,1,297460,297460,1,2189
123-C-3-2-1,1,forward,0,9,7,0,7563421,7563421,1,4630
123-C-3-2-1,1,forward,0,10,7,1,5307948,5307948,1,4000
123-C-3-2-1,1,forward,0,11,8,0,74156892,74156892,1,4694
123-C-3-2-1,1,forward,0,12,8,1,41620893,48627808,0,5087
123-C-3-2-1,1,forward,0,13,9,0,624819073,123456798,0,16739
123-C-3-2-1,1,forward,0,14,9,1,083954261,545123541,0,3674
123-C-4-3-7,1,forward,0,1,3,0,715,375,0,1420
123-C-4-3-7,1,forward,0,2,3,1,615,315,0,1138
123-C-5-4-6,1,forward,0,1,3,0,985,985,1,860
123-C-5-4-6,1,forward,0,2,3,1,461,461,1,1353
123-C-5-4-6,1,forward,0,3,4,0,6048,6048,1,1316
123-C-5-4-6,1,forward,0,4,4,1,6531,6531,1,1331
123-C-5-4-6,1,forward,0,5,5,0,01543,01543,1,1980
123-C-5-4-6,1,forward,0,6,5,1,65940,65940,1,1482
123-C-5-4-6,1,forward,0,7,6,0,623017,623017,1,2212
123-C-5-4-6,1,forward,0,8,6,1,560842,560842,1,2003
123-C-5-4-6,1,forward,0,9,7,0,9832465,2832465,0,7219
123-C-5-4-6,1,forward,0,10,7,1,7350819,7350849,0,5303
123-C-6-3-2,1,forward,0,1,3,0,308,308,1,1635
123-C-6-3-2,1,forward,0,2,3,1,734,734,1,125482
123-C-6-3-2,1,forward,0,3,4,0,9568,9568,1,1476
123-C-6-3-2,1,forward,0,4,4,1,4173,4173,1,1618
123-C-6-3-2,1,forward,0,5,5,0,46109,46109,1,2216
123-C-6-3-2,1,forward,0,6,5,1,20685,20685,1,1924
123-C-6-3-2,1,forward,0,7,6,0,207549,207549,1,2395
123-C-6-3-2,1,forward,0,8,6,1,512490,512490,1,2489
123-C-6-3-2,1,forward,0,9,7,0,2497806,2497806,1,3634
123-C-6-3-2,1,forward,0,10,7,1,3471680,1234567,0,2183
123-C-6-3-2,1,forward,0,11,8,0,45706928,12345678,0,3560
123-C-6-3-2,1,forward,0,12,8,1,42397601,12345678,0,3043
123-C-7-3-6,1,forward,0,1,3,0,572,572,1,1731
123-C-7-3-6,1,forward,0,2,3,1,179,179,1,14113
123-C-7-3-6,1,forward,0,3,4,0,0159,0159,1,22818
123-C-7-3-6,1,forward,0,4,4,1,5473,5473,1,1722
123-C-7-3-6,1,forward,0,5,5,0,26743,26743,1,2208
123-C-7-3-6,1,forward,0,6,5,1,72894,72894,1,1900
123-C-7-3-6,1,forward,0,7,6,0,342095,342095,1,2117
123-C-7-3-6,1,forward,0,8,6,1,914860,914860,1,1858
123-C-7-3-6,1,forward,0,9,7,0,5042678,5042671,0,6361
123-C-7-3-6,1,forward,0,10,7,1,8127340,1234567,0,2759
123-C-8-2-1,1,forward,0,1,3,0,674,674,1,1587
123-C-8-2-1,1,forward,0,2,3,1,239,239,1,2786
123-C-8-2-1,1,forward,0,3,4,0,3068,3068,1,1925
123-C-8-2-1,1,forward,0,4,4,1,9048,5423,0,1201
123-C-8-2-1,1,forward,0,5,5,0,87245,54613,0,1293
123-C-8-2-1,1,forward,0,6,5,1,85673,41568,0,4660
123-C-9-1-2,1,forward,0,1,3,0,412,412,1,1861
123-C-9-1-2,1,forward,0,2,3,1,351,351,1,1183
123-C-9-1-2,1,forward,0,3,4,0,3409,3409,1,1308
123-C-9-1-2,1,forward,0,4,4,1,4736,4736,1,1450
123-C-9-1-2,1,forward,0,5,5,0,32769,32769,1,2562
123-C-9-1-2,1,forward,0,6,5,1,75421,75421,1,2005
123-C-9-1-2,1,forward,0,7,6,0,694205,456412,0,1044
123-C-9-1-2,1,forward,0,8,6,1,183650,123456,0,861
216-C-1-3-5,1,forward,0,1,3,0,467,467,1,1606
216-C-1-3-5,1,forward,0,2,3,1,094,094,1,1594
216-C-1-3-5,1,forward,0,3,4,0,1534,1534,1,1662
216-C-1-3-5,1,forward,0,4,4,1,9824,9824,1,1466
216-C-1-3-5,1,forward,0,5,5,0,84297,84297,1,2091
216-C-1-3-5,1,forward,0,6,5,1,50982,50982,1,1895
216-C-1-3-5,1,forward,0,7,6,0,302965,302965,1,2537
216-C-1-3-5,1,forward,0,8,6,1,309725,309725,1,2741
216-C-1-3-5,1,forward,0,9,7,0,4326179,4326179,1,3203
216-C-1-3-5,1,forward,0,10,7,1,0184625,0184526,0,3152
216-C-1-3-5,1,forward,0,11,8,0,01329874,09327814,0,19845
216-C-1-3-5,1,forward,0,12,8,1,43107259,43205879,0,14632
216-C-2-4-5,1,forward,0,1,3,0,657,657,1,962
216-C-2-4-5,1,forward,0,2,3,1,628,628,1,2290
216-C-2-4-5,1,forward,0,3,4,0,1589,1589,1,1586
216-C-2-4-5,1,forward,0,4,4,1,5129,5129,1,1267
216-C-2-4-5,1,forward,0,5,5,0,90761,90761,1,2662
216-C-2-4-5,1,forward,0,6,5,1,79318,79318,1,3539
216-C-2-4-5,1,forward,0,7,6,0,896347,896347,1,1998
216-C-2-4-5,1,forward,0,8,6,1,465307,465307,1,2544
216-C-2-4-5,1,forward,0,9,7,0,3249875,3249875,1,13863
216-C-2-4-5,1,forward,0,10,7,1,6480751,6480751,1,2922
216-C-2-4-5,1,forward,0,11,8,0,50178263,501764-3,0,19940
216-C-2-4-5,1,forward,0,12,8,1,56238149,5680149-,0,15257
216-C-3-1-5,1,forward,0,1,3,0,759,759,1,895
216-C-3-1-5,1,forward,0,2,3,1,926,926,1,1108
216-C-3-1-5,1,forward,0,3,4,0,8031,8031,1,1951
216-C-3-1-5,1,forward,0,4,4,1,3918,3918,1,2275
216-C-3-1-5,1,forward,0,5,5,0,85940,89540,0,1301
216-C-3-1-5,1,forward,0,6,5,1,63984,63984,1,1584
216-C-3-1-5,1,forward,0,7,6,0,803154,803154,1,1526
216-C-3-1-5,1,forward,0,8,6,1,475891,475891,1,1884
216-C-3-1-5,1,forward,0,9,7,0,1825069,1825096,0,2564
216-C-3-1-5,1,forward,0,10,7,1,4032659,503692<kp_enter>,0,2721
216-C-4-2-2,1,forward,0,1,3,0,935,935,1,959
216-C-4-2-2,1,forward,0,2,3,1,124,124,1,915
216-C-4-2-2,1,forward,0,3,4,0,8236,8236,1,1172
216-C-4-2-2,1,forward,0,4,4,1,0492,0492,1,1559
216-C-4-2-2,1,forward,0,5,5,0,39042,39042,1,1985
216-C-4-2-2,1,forward,0,6,5,1,61702,61702,1,2609
216-C-4-2-2,1,forward,0,7,6,0,107536,107536,1,1771
216-C-4-2-2,1,forward,0,8,6,1,057684,057684,1,1738
216-C-4-2-2,1,forward,0,9,7,0,1532074,1532074,1,2389
216-C-4-2-2,1,forward,0,10,7,1,5403879,5403874,0,1920
216-C-4-2-2,1,forward,0,11,8,0,95182734,95187234,0,6699
216-C-4-2-2,1,forward,0,12,8,1,38752104,38750124,0,3335
3001-B-1-1-1,1,forward,0,1,3,0,508,508,1,4297
3001-B-1-1-1,1,forward,0,2,3,1,649,649,1,2843
3001-B-1-1-1,1,forward,0,3,4,0,3095,3095,1,2505
3001-B-1-1-1,1,forward,0,4,4,1,7425,7425,1,2331
3001-B-1-1-1,1,forward,0,5,5,0,40719,40719,1,4347
3001-B-1-1-1,1,forward,0,6,5,1,31297,31297,1,3557
3001-B-1-1-1,1,forward,0,7,6,0,560427,560246,0,4295
3001-B-1-1-1,1,forward,0,8,6,1,473528,473528,1,4760
3001-B-1-1-1,1,forward,0,9,7,0,7682503,7682503,1,9148
3001-B-1-1-1,1,forward,0,10,7,1,6705149,6705149,1,5732
3001-B-1-1-1,1,forward,0,11,8,0,90682714,90681487,0,10513
3001-B-1-1-1,1,forward,0,12,8,1,63510849,63590832,0,15142
3001-C-1-2-3,1,forward,0,1,3,0,918,918,1,2314
3001-C-1-2-3,1,forward,0,2,3,1,351,351,1,1431
3001-C-1-2-3,1,forward,0,3,4,0,0716,0716,1,2014
3001-C-1-2-3,1,forward,0,4,4,1,9152,9152,1,2069
3001-C-1-2-3,1,forward,0,5,5,0,39865,39865,1,2466
3001-C-1-2-3,1,forward,0,6,5,1,67319,67319,1,2286
3001-C-1-2-3,1,forward,0,7,6,0,530281,530281,1,4029
3001-C-1-2-3,1,forward,0,8,6,1,769183,769183,1,3517
3001-C-1-2-3,1,forward,0,9,7,0,1308265,1308265,1,4104
3001-C-1-2-3,1,forward,0,10,7,1,0183692,0183692,1,2500
3001-C-1-2-3,1,forward,0,11,8,0,16984702,16984072,0,3310
3001-C-1-2-3,1,forward,0,12,8,1,80593146,80519612,0,5130
327-B-1-3-5,1,forward,0,1,3,0,293,293,1,1528
327-B-1-3-5,1,forward,0,2,3,1,736,736,1,1924
327-B-1-3-5,1,forward,0,3,4,0,2485,2485,1,1728
327-B-1-3-5,1,forward,0,4,4,1,6825,6825,1,2279
327-B-1-3-5,1,forward,0,5,5,0,90478,90478,1,2892
327-B-1-3-5,1,forward,0,6,5,1,64209,64209,1,2083
327-B-1-3-5,1,forward,0,7,6,0,183450,183450,1,1995
327-B-1-3-5,1,forward,0,8,6,1,580174,580174,1,2547
327-B-1-3-5,1,forward,0,9,7,0,7493018,0439018,0,3035
327-B-1-3-5,1,forward,0,10,7,1,3698104,3698104,1,2202
327-B-1-3-5,1,forward,0,11,8,0,32974685,32573289,0,4556
327-B-1-3-5,1,forward,0,12,8,1,28549037,28940321,0,5959
327-B-2-1-2,1,forward,0,1,3,0,654,654,1,2041
327-B-2-1-2,1,forward,0,2,3,1,479,479,1,1587
327-B-2-1-2,1,forward,0,3,4,0,8639,8639,1,2575
327-B-2-1-2,1,forward,0,4,4,1,2964,2964,1,1568
327-B-2-1-2,1,forward,0,5,5,0,21947,21947,1,2585
327-B-2-1-2,1,forward,0,6,5,1,65278,65278,1,2190
327-B-2-1-2,1,forward,0,7,6,0,315267,315267,1,2423
327-B-2-1-2,1,forward,0,8,6,1,564083,564083,1,2699
327-B-2-1-2,1,forward,0,9,7,0,3568140,3568140,1,4990
327-B-2-1-2,1,forward,0,10,7,1,2458630,2458630,1,3897
327-B-2-1-2,1,forward,0,11,8,0,58362147,58362148,0,4006
327-B-2-1-2,1,forward,0,12,8,1,54396210,54365462,0,4822
327-B-3-2-5,1,forward,0,1,3,0,975,975,1,1186
327-B-3-2-5,1,forward,0,2,3,1,270,270,1,1490
327-B-3-2-5,1,forward,0,3,4,0,1968,1968,1,8976
327-B-3-2-5,1,forward,0,4,4,1,7149,7149,1,3307
327-B-3-2-5,1,forward,0,5,5,0,84127,84127,1,1744
327-B-3-2-5,1,forward,0,6,5,1,64738,64738,1,6231
327-B-3-2-5,1,forward,0,7,6,0,053942,053940,0,6064
327-B-3-2-5,1,forward,0,8,6,1,680359,640359,0,2099
327-B-4-4-5,1,forward,0,1,3,0,936,936,1,1446
327-B-4-4-5,1,forward,0,2,3,1,162,2<kp_enter>_,0,371
327-B-4-4-5,1,forward,0,3,4,0,8325,8325,1,1846
327-B-4-4-5,1,forward,0,4,4,1,7384,7384,1,2029
327-B-4-4-5,1,forward,0,5,5,0,19436,19436,1,4057
327-B-4-4-5,1,forward,0,6,5,1,85704,85704,1,2301
327-B-4-4-5,1,forward,0,7,6,0,047152,047152,1,2516
327-B-4-4-5,1,forward,0,8,6,1,912376,912376,1,2992
327-B-4-4-5,1,forward,0,9,7,0,9358164,1357134,0,2643
327-B-4-4-5,1,forward,0,10,7,1,0379586,0379586,1,2847
327-B-4-4-5,1,forward,0,11,8,0,65391487,65391487,1,4168
327-B-4-4-5,1,forward,0,12,8,1,74398250,73498207,0,6072
327-B-4-4-5,1,forward,0,13,9,0,613042785,043682732,0,4659
327-B-4-4-5,1,forward,0,14,9,1,372510846,681234579,0,4309
656-C-10-4-5,1,forward,0,1,3,0,982,982,1,1319
656-C-10-4-5,1,forward,0,2,3,1,762,762,1,1146
656-C-10-4-5,1,forward,0,3,4,0,0286,0286,1,2015
656-C-10-4-5,1,forward,0,4,4,1,9587,9587,1,2772
656-C-10-4-5,1,forward,0,5,5,0,27896,27896,1,4581
656-C-10-4-5,1,forward,0,6,5,1,53148,53048,0,3833
656-C-10-4-5,1,forward,0,7,6,0,673952,673952,1,3199
656-C-10-4-5,1,forward,0,8,6,1,189532,189532,1,2387
656-C-10-4-5,1,forward,0,9,7,0,0241569,0241539,0,10597
656-C-10-4-5,1,forward,0,10,7,1,7480152,7180592,0,5048
656-C-1-2-3,1,forward,0,1,3,0,187,187,1,3381
656-C-1-2-3,1,forward,0,2,3,1,142,142,1,2179
656-C-1-2-3,1,forward,0,3,4,0,7310,
656-C-2-4-5,1,forward,0,1,3,0,065,065,1,2143
656-C-2-4-5,1,forward,0,2,3,1,345,345,1,1780
656-C-2-4-5,1,forward,0,3,4,0,2036,2034,0,2693
656-C-2-4-5,1,forward,0,4,4,1,5249,5249,1,3171
656-C-2-4-5,1,forward,0,5,5,0,80249,80249,1,4720
656-C-2-4-5,1,forward,0,6,5,1,98407,98407,1,2845
656-C-2-4-5,1,forward,0,7,6,0,579836,975836,0,6354
656-C-2-4-5,1,forward,0,8,6,1,129704,14863<kp_enter>,0,2032
656-C-3-1-4,1,forward,0,1,3,0,873,873,1,2419
656-C-3-1-4,1,forward,0,2,3,1,658,658,1,1931
656-C-3-1-4,1,forward,0,3,4,0,3769,3769,1,3926
656-C-3-1-4,1,forward,0,4,4,1,3701,3701,1,4338
656-C-3-1-4,1,forward,0,5,5,0,48791,48791,1,3859
656-C-3-1-4,1,forward,0,6,5,1,90241,90241,1,3917
656-C-3-1-4,1,forward,0,7,6,0,214695,201495,0,8045
656-C-3-1-4,1,forward,0,8,6,1,539178,539178,1,6214
656-C-3-1-4,1,forward,0,9,7,0,9761450,9761450,1,5781
656-C-3-1-4,1,forward,0,10,7,1,9306521,9306521,1,7269
656-C-3-1-4,1,forward,0,11,8,0,79018425,90284167,0,8616
656-C-3-1-4,1,forward,0,12,8,1,16208359,90283591,0,7215
656-C-5-3-3,1,forward,0,1,3,0,204,204,1,2181
656-C-5-3-3,1,forward,0,2,3,1,291,291,1,2363
656-C-5-3-3,1,forward,0,3,4,0,4730,4730,1,2844
656-C-5-3-3,1,forward,0,4,4,1,1947,1947,1,2676
656-C-5-3-3,1,forward,0,5,5,0,42389,42389,1,3702
656-C-5-3-3,1,forward,0,6,5,1,84506,84506,1,3508
656-C-5-3-3,1,forward,0,7,6,0,549276,549276,1,4276
656-C-5-3-3,1,forward,0,8,6,1,319780,319780,1,3691
656-C-5-3-3,1,forward,0,9,7,0,8716920,8716920,1,3983
656-C-5-3-3,1,forward,0,10,7,1,1045932,1045932,1,3804
656-C-5-3-3,1,forward,0,11,8,0,12649708,12649708,1,6980
656-C-5-3-3,1,forward,0,12,8,1,60925471,60925471,1,12218
656-C-5-3-3,1,forward,0,13,9,0,640395782,640739578,0,9978
656-C-5-3-3,1,forward,0,14,9,1,961504832,960704382,0,8459
656-C-6-4-4,1,forward,0,1,3,0,218,218,1,1241
656-C-6-4-4,1,forward,0,2,3,1,184,184,1,1105
656-C-6-4-4,1,forward,0,3,4,0,7165,7165,1,2047
656-C-6-4-4,1,forward,0,4,4,1,0716,0716,1,2194
656-C-6-4-4,1,forward,0,5,5,0,14038,14038,1,2288
656-C-6-4-4,1,forward,0,6,5,1,35492,35492,1,3188
656-C-6-4-4,1,forward,0,7,6,0,301596,301596,1,2577
656-C-6-4-4,1,forward,0,8,6,1,250469,250469,1,3731
656-C-6-4-4,1,forward,0,9,7,0,3587201,2587201,0,4348
656-C-6-4-4,1,forward,0,10,7,1,0413765,0413745,0,6179
656-C-7-1-6,1,forward,0,1,3,0,846,846,1,1594
656-C-7-1-6,1,forward,0,2,3,1,984,984,1,1528
656-C-7-1-6,1,forward,0,3,4,0,6172,6172,1,2790
656-C-7-1-6,1,forward,0,4,4,1,0134,0134,1,2270
656-C-7-1-6,1,forward,0,5,5,0,84953,84953,1,2646
656-C-7-1-6,1,forward,0,6,5,1,26178,26178,1,4742
656-C-7-1-6,1,forward,0,7,6,0,087621,087621,1,4076
656-C-7-1-6,1,forward,0,8,6,1,870165,870165,1,3167
656-C-7-1-6,1,forward,0,9,7,0,2104398,2104398,1,5062
656-C-7-1-6,1,forward,0,10,7,1,5271480,5172480,0,4711
656-C-7-1-6,1,forward,0,11,8,0,35762419,35762419,1,4374
656-C-7-1-6,1,forward,0,12,8,1,47856213,47856213,1,7051
656-C-7-1-6,1,forward,0,13,9,0,051462937,051462937,1,6330
656-C-7-1-6,1,forward,0,14,9,1,892710654,852710654,0,5633
656-C-7-1-6,1,forward,0,15,10,0,6039512478,60357128<kp_enter>_,0,9319
656-C-7-1-6,1,forward,0,16,10,1,7534896012,8974356012,0,21691
656-C-8-2-3,1,forward,0,1,3,0,430,430,1,2139
656-C-8-2-3,1,forward,0,2,3,1,290,290,1,1416
656-C-8-2-3,1,forward,0,3,4,0,0746,0746,1,2235
656-C-8-2-3,1,forward,0,4,4,1,9057,9057,1,3054
656-C-8-2-3,1,forward,0,5,5,0,87406,87406,1,2594
656-C-8-2-3,1,forward,0,6,5,1,98106,98106,1,2232
656-C-8-2-3,1,forward,0,7,6,0,012934,012934,1,3164
656-C-8-2-3,1,forward,0,8,6,1,428061,428061,1,2416
656-C-8-2-3,1,forward,0,9,7,0,8167209,8167201,0,6055
656-C-8-2-3,1,forward,0,10,7,1,5937240,5937240,1,4504
656-C-8-2-3,1,forward,0,11,8,0,56087423,56087423,1,5897
656-C-8-2-3,1,forward,0,12,8,1,39654108,39654108,1,3781
656-C-8-2-3,1,forward,0,13,9,0,250613784,352613716,0,9546
656-C-8-2-3,1,forward,0,14,9,1,902841536,914331238,0,9334
656-C-9-3-3,1,forward,0,1,3,0,489,489,1,2043
656-C-9-3-3,1,forward,0,2,3,1,138,138,1,1571
656-C-9-3-3,1,forward,0,3,4,0,5486,5486,1,1444
656-C-9-3-3,1,forward,0,4,4,1,8195,8195,1,2358
656-C-9-3-3,1,forward,0,5,5,0,32540,32540,1,2351
656-C-9-3-3,1,forward,0,6,5,1,25673,25673,1,2564
656-C-9-3-3,1,forward,0,7,6,0,423796,423796,1,2821
656-C-9-3-3,1,forward,0,8,6,1,685941,684951,0,8699
656-C-9-3-3,1,forward,0,9,7,0,4965310,4965310,1,6551
656-C-9-3-3,1,forward,0,10,7,1,5283046,5283416,0,7918
656-C-9-3-3,1,forward,0,11,8,0,65829041,65829041,1,5033
656-C-9-3-3,1,forward,0,12,8,1,74560983,74560983,1,5824
656-C-9-3-3,1,forward,0,13,9,0,492570136,635894256,0,6403
656-C-9-3-3,1,forward,0,14,9,1,803275691,807249650,0,6186
777-C-1-4-6,1,forward,0,1,3,0,972,972,1,3826
777-C-1-4-6,1,forward,0,2,3,1,281,281,1,1362
777-C-1-4-6,1,forward,0,3,4,0,6521,6521,1,2395
777-C-1-4-6,1,forward,0,4,4,1,1064,1064,1,2180
777-C-1-4-6,1,forward,0,5,5,0,12763,12763,1,2460
777-C-1-4-6,1,forward,0,6,5,1,72086,72086,1,3252
777-C-1-4-6,1,forward,0,7,6,0,192465,129645,0,5548
777-C-1-4-6,1,forward,0,8,6,1,859106,859106,1,3197
777-C-1-4-6,1,forward,0,9,7,0,1462395,1264397,0,4865
777-C-1-4-6,1,forward,0,10,7,1,6973548,6394786,0,7809
777-C-2-4-7,1,forward,0,1,3,0,398,398,1,1285
777-C-2-4-7,1,forward,0,2,3,1,387,387,1,1562
777-C-2-4-7,1,forward,0,3,4,0,2784,2784,1,2007
777-C-2-4-7,1,forward,0,4,4,1,2958,2958,1,1507
777-C-2-4-7,1,forward,0,5,5,0,91346,91346,1,2482
777-C-2-4-7,1,forward,0,6,5,1,54170,54170,1,2570
777-C-2-4-7,1,forward,0,7,6,0,093125,093125,1,4210
777-C-2-4-7,1,forward,0,8,6,1,364091,364091,1,3574
777-C-2-4-7,1,forward,0,9,7,0,9506728,957680<kp_enter>,0,5180
777-C-2-4-7,1,forward,0,10,7,1,6589140,9841000,0,8840
777-C-3-2-5,1,forward,0,1,3,0,309,309,1,2353
777-C-3-2-5,1,forward,0,2,3,1,792,792,1,1858
777-C-3-2-5,1,forward,0,3,4,0,7180,7180,1,1504
777-C-3-2-5,1,forward,0,4,4,1,6740,6740,1,1977
777-C-3-2-5,1,forward,0,5,5,0,47150,47150,1,1731
777-C-3-2-5,1,forward,0,6,5,1,37904,37904,1,3566
777-C-3-2-5,1,forward,0,7,6,0,465107,465107,1,4518
777-C-3-2-5,1,forward,0,8,6,1,479160,479160,1,5898
777-C-3-2-5,1,forward,0,9,7,0,0657419,4651907,0,10677
777-C-3-2-5,1,forward,0,10,7,1,1089367,1089617,0,8895
777-C-4-2-7,1,forward,0,1,3,0,720,720,1,1636
777-C-4-2-7,1,forward,0,2,3,1,521,521,1,1503
777-C-4-2-7,1,forward,0,3,4,0,5329,5329,1,1803
777-C-4-2-7,1,forward,0,4,4,1,6928,6928,1,2040
777-C-4-2-7,1,forward,0,5,5,0,29563,29563,1,4508
777-C-4-2-7,1,forward,0,6,5,1,12037,12037,1,2995
777-C-4-2-7,1,forward,0,7,6,0,359287,359287,1,3589
777-C-4-2-7,1,forward,0,8,6,1,583120,583120,1,2868
777-C-4-2-7,1,forward,0,9,7,0,8431905,8031905,0,16419
777-C-4-2-7,1,forward,0,10,7,1,3259481,3258914,0,8037
777-C-5-3-1,1,forward,0,1,3,0,513,513,1,1455
777-C-5-3-1,1,forward,0,2,3,1,467,467,1,4393
777-C-5-3-1,1,forward,0,3,4,0,0815,0815,1,2896
777-C-5-3-1,1,forward,0,4,4,1,9031,9031,1,1780
777-C-5-3-1,1,forward,0,5,5,0,03695,03695,1,2300
777-C-5-3-1,1,forward,0,6,5,1,06941,06941,1,1895
777-C-5-3-1,1,forward,0,7,6,0,459281,469281,0,5595
777-C-5-3-1,1,forward,0,8,6,1,127653,729683,0,9882
777-C-6-3-5,1,forward,0,1,3,0,705,705,1,1619
777-C-6-3-5,1,forward,0,2,3,1,269,269,1,1619
777-C-6-3-5,1,forward,0,3,4,0,8976,8976,1,1867
777-C-6-3-5,1,forward,0,4,4,1,3682,3682,1,2194
777-C-6-3-5,1,forward,0,5,5,0,86057,86057,1,2082
777-C-6-3-5,1,forward,0,6,5,1,58612,58612,1,3116
777-C-6-3-5,1,forward,0,7,6,0,735490,537492,0,4692
777-C-6-3-5,1,forward,0,8,6,1,736502,736502,1,2095
777-C-6-3-5,1,forward,0,9,7,0,4703652,4763502,0,4003
777-C-6-3-5,1,forward,0,10,7,1,9053174,9053174,1,4335
777-C-6-3-5,1,forward,0,11,8,0,09627384,09627834,0,6373
777-C-6-3-5,1,forward,0,12,8,1,58170962,58170962,1,3678
777-C-6-3-5,1,forward,0,13,9,0,236980451,206394850,0,8125
777-C-6-3-5,1,forward,0,14,9,1,019237658,013926508,0,5087
EJS-B-1-1-2,1,forward,0,1,3,0,482,382,0,7220
EJS-B-1-1-2,1,forward,0,2,3,1,523,523,1,3058
EJS-B-1-1-2,1,forward,0,3,4,0,5620,5620,1,3379
EJS-B-1-1-2,1,forward,0,4,4,1,9672,9672,1,4039
EJS-B-1-1-2,1,forward,0,5,5,0,52198,52198,1,3250
EJS-B-1-1-2,1,forward,0,6,5,1,98275,18275,0,5656
EJS-B-1-1-2,1,forward,0,7,6,0,560172,560172,1,3867
EJS-B-1-1-2,1,forward,0,8,6,1,018934,018931,0,4664
EJS-B-1-1-2,1,forward,0,9,7,0,7210483,721043_,0,4138
EJS-B-1-1-2,1,forward,0,10,7,1,4068253,408253_,0,5462
EJS-B-2-2-2,1,forward,0,1,3,0,603,603,1,1109
EJS-B-2-2-2,1,forward,0,2,3,1,461,461,1,1729
EJS-B-2-2-2,1,forward,0,3,4,0,9816,9816,1,2847
EJS-B-2-2-2,1,forward,0,4,4,1,3604,3604,1,3199
EJS-B-2-2-2,1,forward,0,5,5,0,83241,83241,1,2108
EJS-B-2-2-2,1,forward,0,6,5,1,39157,39157,1,4361
EJS-B-2-2-2,1,forward,0,7,6,0,268519,268591,0,4463
EJS-B-2-2-2,1,forward,0,8,6,1,839572,839572,1,5311
EJS-B-2-2-2,1,forward,0,9,7,0,8290571,8290571,1,3589
EJS-B-2-2-2,1,forward,0,10,7,1,5127608,5127608,1,4576
EJS-B-2-2-2,1,forward,0,11,8,0,13084796,13084796,1,4941
EJS-B-2-2-2,1,forward,0,12,8,1,48092576,48092576,1,6319
EJS-B-2-2-2,1,forward,0,13,9,0,284179630,283176590,0,9099
EJS-B-2-2-2,1,forward,0,14,9,1,679521403,679401823,0,8701
EJS-B-3-4-2,1,forward,0,1,3,0,127,127,1,711
EJS-B-3-4-2,1,forward,0,2,3,1,820,820,1,1977
EJS-B-3-4-2,1,forward,0,3,4,0,0647,0647,1,2369
EJS-B-3-4-2,1,forward,0,4,4,1,5749,5749,1,2912
EJS-B-3-4-2,1,forward,0,5,5,0,18204,18203,0,1840
EJS-B-3-4-2,1,forward,0,6,5,1,15647,15647,1,2530
EJS-B-3-4-2,1,forward,0,7,6,0,926417,926417,1,4571
EJS-B-3-4-2,1,forward,0,8,6,1,943025,943025,1,4129
EJS-B-3-4-2,1,forward,0,9,7,0,0629475,0629475,1,5850
EJS-B-3-4-2,1,forward,0,10,7,1,5926384,5926384,1,5193
EJS-B-3-4-2,1,forward,0,11,8,0,91654372,91654372,1,3573
EJS-B-3-4-2,1,forward,0,12,8,1,96803245,96803245,1,5831
EJS-B-3-4-2,1,forward,0,13,9,0,560234879,560234879,1,4415
EJS-B-3-4-2,1,forward,0,14,9,1,862359041,862350821,0,11969
EJS-B-3-4-2,1,forward,0,15,10,0,3571849602,3571859602,0,7215
EJS-B-3-4-2,1,forward,0,16,10,1,2713405968,2743057968,0,9134
EJS-B-4-3-8,1,forward,0,1,3,0,796,796,1,1679
EJS-B-4-3-8,1,forward,0,2,3,1,815,815,1,897
EJS-B-4-3-8,1,forward,0,3,4,0,5168,5168,1,2304
EJS-B-4-3-8,1,forward,0,4,4,1,6312,6312,1,2552
EJS-B-4-3-8,1,forward,0,5,5,0,72695,72695,1,3091
EJS-B-4-3-8,1,forward,0,6,5,1,79264,79264,1,4254
EJS-B-4-3-8,1,forward,0,7,6,0,621508,621508,1,4831
EJS-B-4-3-8,1,forward,0,8,6,1,957630,957630,1,4424
EJS-B-4-3-8,1,forward,0,9,7,0,1539607,1539607,1,4654
EJS-B-4-3-8,1,forward,0,10,7,1,6809254,6809254,1,6945
EJS-B-4-3-8,1,forward,0,11,8,0,72813604,72813064,0,5097
EJS-B-4-3-8,1,forward,0,12,8,1,21038965,21038965,1,3943
EJS-B-4-3-8,1,forward,0,13,9,0,159342687,159342687,1,7042
EJS-B-4-3-8,1,forward,0,14,9,1,046839152,046835912,0,8718
EJS-B-4-3-8,1,forward,0,15,10,0,8173459260,8173459260,1,8302
EJS-B-4-3-8,1,forward,0,16,10,1,2670851934,2670851934,1,7230
EJS-B-5-1-8,1,forward,0,1,3,0,145,145,1,1804
EJS-B-5-1-8,1,forward,0,2,3,1,356,356,1,2238
EJS-B-5-1-8,1,forward,0,3,4,0,8937,8937,1,3817
EJS-B-5-1-8,1,forward,0,4,4,1,3786,3786,1,4210
EJS-B-5-1-8,1,forward,0,5,5,0,49510,49510,1,4670
EJS-B-5-1-8,1,forward,0,6,5,1,41058,41058,1,5298
EJS-B-5-1-8,1,forward,0,7,6,0,042567,042567,1,6411
EJS-B-5-1-8,1,forward,0,8,6,1,184625,184625,1,5352
EJS-B-5-1-8,1,forward,0,9,7,0,8352794,8352794,1,6727
EJS-B-5-1-8,1,forward,0,10,7,1,3816524,8356024,0,7737
EJS-B-5-1-8,1,forward,0,11,8,0,10725864,10725864,1,7826
EJS-B-5-1-8,1,forward,0,12,8,1,84971023,84971023,1,6109
EJS-B-5-1-8,1,forward,0,13,9,0,834207965,839270465,0,11888
EJS-B-5-1-8,1,forward,0,14,9,1,418736290,418790362,0,9118
Z13-B-10-4-1,1,forward,0,1,3,0,105,105,1,2156
Z13-B-10-4-1,1,forward,0,2,3,1,382,382,1,2902
Z13-B-10-4-1,1,forward,0,3,4,0,9602,9602,1,3114
Z13-B-10-4-1,1,forward,0,4,4,1,8206,8206,1,3018
Z13-B-10-4-1,1,forward,0,5,5,0,73961,73961,1,4847
Z13-B-10-4-1,1,forward,0,6,5,1,23601,23601,1,3975
Z13-B-10-4-1,1,forward,0,7,6,0,203456,203456,1,4675
Z13-B-10-4-1,1,forward,0,8,6,1,502971,502971,1,5441
Z13-B-10-4-1,1,forward,0,9,7,0,6841937,6841937,1,5438
Z13-B-10-4-1,1,forward,0,10,7,1,6987432,6987435,0,26456
Z13-B-10-4-1,1,forward,0,11,8,0,93076182,93076182,1,6931
Z13-B-10-4-1,1,forward,0,12,8,1,56094871,67094831,0,9413
Z13-B-10-4-1,1,forward,0,13,9,0,351629847,351629847,1,6289
Z13-B-10-4-1,1,forward,0,14,9,1,619742038,619742038,1,6745
Z13-B-10-4-1,1,forward,0,15,10,0,2937458016,2987458016,0,6451
Z13-B-10-4-1,1,forward,0,16,10,1,2953480617,2953480671,0,13129
Z13-B-11-3-8,1,forward,0,1,3,0,071,071,1,1788
Z13-B-11-3-8,1,forward,0,2,3,1,197,197,1,1293
Z13-B-11-3-8,1,forward,0,3,4,0,8143,8143,1,2437
Z13-B-11-3-8,1,forward,0,4,4,1,0817,0817,1,2825
Z13-B-11-3-8,1,forward,0,5,5,0,14905,14905,1,2756
Z13-B-11-3-8,1,forward,0,6,5,1,45968,45968,1,3380
Z13-B-11-3-8,1,forward,0,7,6,0,908432,908432,1,2358
Z13-B-11-3-8,1,forward,0,8,6,1,915230,915230,1,4177
Z13-B-11-3-8,1,forward,0,9,7,0,6037185,6037185,1,5363
Z13-B-11-3-8,1,forward,0,10,7,1,2765940,2765940,1,4122
Z13-B-11-3-8,1,forward,0,11,8,0,45193280,45193280,1,4666
Z13-B-11-3-8,1,forward,0,12,8,1,17260984,17260984,1,5003
Z13-B-11-3-8,1,forward,0,13,9,0,897560241,897560241,1,11051
Z13-B-11-3-8,1,forward,0,14,9,1,923570681,923670301,0,6127
Z13-B-11-3-8,1,forward,0,15,10,0,8217403695,8217403695,1,8783
Z13-B-11-3-8,1,forward,0,16,10,1,8126470539,8126475093,0,19741
Z13-B-12-1-7,1,forward,0,1,3,0,301,301,1,3290
Z13-B-12-1-7,1,forward,0,2,3,1,510,510,1,2277
Z13-B-12-1-7,1,forward,0,3,4,0,5731,5731,1,3474
Z13-B-12-1-7,1,forward,0,4,4,1,0458,0458,1,2479
Z13-B-12-1-7,1,forward,0,5,5,0,51862,51862,1,3962
Z13-B-12-1-7,1,forward,0,6,5,1,52740,52740,1,3668
Z13-B-12-1-7,1,forward,0,7,6,0,134695,134695,1,3932
Z13-B-12-1-7,1,forward,0,8,6,1,413250,413250,1,4372
Z13-B-12-1-7,1,forward,0,9,7,0,0284573,0284573,1,4352
Z13-B-12-1-7,1,forward,0,10,7,1,8760134,8760134,1,6828
Z13-B-12-1-7,1,forward,0,11,8,0,15394072,15394072,1,6508
Z13-B-12-1-7,1,forward,0,12,8,1,52607841,52607841,1,7097
Z13-B-12-1-7,1,forward,0,13,9,0,306419285,306419285,1,8588
Z13-B-12-1-7,1,forward,0,14,9,1,348725910,348725910,1,6372
Z13-B-12-1-7,1,forward,0,15,10,0,9430782651,9430782651,1,6806
Z13-B-12-1-7,1,forward,0,16,10,1,7421589036,7420618953,0,14155
Z13-B-1-2-5,1,forward,0,1,3,0,194,194,1,22571
Z13-B-1-2-5,1,forward,0,2,3,1,576,576,1,1848
Z13-B-1-2-5,1,forward,0,3,4,0,0854,0854,1,2960
Z13-B-1-2-5,1,forward,0,4,4,1,0962,0962,1,3141
Z13-B-1-2-5,1,forward,0,5,5,0,14985,14985,1,3323
Z13-B-1-2-5,1,forward,0,6,5,1,21840,21840,1,3643
Z13-B-1-2-5,1,forward,0,7,6,0,316902,316902,1,3459
Z13-B-1-2-5,1,forward,0,8,6,1,514069,514069,1,3559
Z13-B-1-2-5,1,forward,0,9,7,0,7638952,7638952,1,4801
Z13-B-1-2-5,1,forward,0,10,7,1,0712496,0712496,1,5646
Z13-B-1-2-5,1,forward,0,11,8,0,12054893,12054893,1,8309
Z13-B-1-2-5,1,forward,0,12,8,1,03576948,03576948,1,6252
Z13-B-1-2-5,1,forward,0,13,9,0,729150483,729150483,1,6670
Z13-B-1-2-5,1,forward,0,14,9,1,461058927,461058967,0,7785
Z13-B-1-2-5,1,forward,0,15,10,0,7816493520,7413694820,0,7199
Z13-B-1-2-5,1,forward,0,16,10,1,5609324781,5609324781,1,5547
Z13-B-2-4-6,1,forward,0,1,3,0,421,421,1,1441
Z13-B-2-4-6,1,forward,0,2,3,1,549,549,1,2079
Z13-B-2-4-6,1,forward,0,3,4,0,4193,4193,1,22119
Z13-B-2-4-6,1,forward,0,4,4,1,5213,5213,1,2689
Z13-B-2-4-6,1,forward,0,5,5,0,09284,09284,1,3238
Z13-B-2-4-6,1,forward,0,6,5,1,74128,74128,1,3400
Z13-B-2-4-6,1,forward,0,7,6,0,769124,799124,0,5387
Z13-B-2-4-6,1,forward,0,8,6,1,871059,871059,1,23398
Z13-B-2-4-6,1,forward,0,9,7,0,1063259,1063259,1,6693
Z13-B-2-4-6,1,forward,0,10,7,1,0156938,0156938,1,11148
Z13-B-2-4-6,1,forward,0,11,8,0,14605827,14605827,1,7285
Z13-B-2-4-6,1,forward,0,12,8,1,95032847,95032847,1,6188
Z13-B-2-4-6,1,forward,0,13,9,0,291348765,291348769,0,6257
Z13-B-2-4-6,1,forward,0,14,9,1,106285349,106285349,1,9377
Z13-B-2-4-6,1,forward,0,15,10,0,1893756024,1875639024,0,9656
Z13-B-2-4-6,1,forward,0,16,10,1,2107643859,2176403894,0,11857
Z13-B-3-3-3,1,forward,0,1,3,0,376,376,1,2836
Z13-B-3-3-3,1,forward,0,2,3,1,473,473,1,2652
Z13-B-3-3-3,1,forward,0,3,4,0,9528,9528,1,3966
Z13-B-3-3-3,1,forward,0,4,4,1,7348,7348,1,31679
Z13-B-3-3-3,1,forward,0,5,5,0,53672,53672,1,3601
Z13-B-3-3-3,1,forward,0,6,5,1,21067,21067,1,3676
Z13-B-3-3-3,1,forward,0,7,6,0,745013,745013,1,4685
Z13-B-3-3-3,1,forward,0,8,6,1,097234,970234,0,3985
Z13-B-3-3-3,1,forward,0,9,7,0,3078694,3078694,1,6086
Z13-B-3-3-3,1,forward,0,10,7,1,1684952,1684952,1,5014
Z13-B-3-3-3,1,forward,0,11,8,0,34519207,34519207,1,5673
Z13-B-3-3-3,1,forward,0,12,8,1,79325180,79325180,1,6281
Z13-B-3-3-3,1,forward,0,13,9,0,574163829,574163829,1,7343
Z13-B-3-3-3,1,forward,0,14,9,1,769230814,769230814,1,10217
Z13-B-3-3-3,1,forward,0,15,10,0,7530681924,7530681924,1,13366
Z13-B-3-3-3,1,forward,0,16,10,1,7258394610,7298614320,0,8757
Z13-B-3-3-5,1,forward,0,1,3,0,
Z13-B-4-1-6,1,forward,0,1,3,0,485,485,1,3141
Z13-B-4-1-6,1,forward,0,2,3,1,609,609,1,2306
Z13-B-4-1-6,1,forward,0,3,4,0,6218,6218,1,3246
Z13-B-4-1-6,1,forward,0,4,4,1,5918,5918,1,6339
Z13-B-4-1-6,1,forward,0,5,5,0,46321,46321,1,3330
Z13-B-4-1-6,1,forward,0,6,5,1,67013,67013,1,3215
Z13-B-4-1-6,1,forward,0,7,6,0,819365,819365,1,6928
Z13-B-4-1-6,1,forward,0,8,6,1,234619,234619,1,3969
Z13-B-4-1-6,1,forward,0,9,7,0,8920637,8920637,1,5813
Z13-B-4-1-6,1,forward,0,10,7,1,9534278,9534278,1,5480
Z13-B-4-1-6,1,forward,0,11,8,0,19634082,19634082,1,4816
Z13-B-4-1-6,1,forward,0,12,8,1,76241803,76241803,1,6659
Z13-B-4-1-6,1,forward,0,13,9,0,921534860,921534860,1,5790
Z13-B-4-1-6,1,forward,0,14,9,1,053971684,053971684,1,6476
Z13-B-4-1-6,1,forward,0,15,10,0,9365724810,9765324810,0,18490
Z13-B-4-1-6,1,forward,0,16,10,1,2657841039,89542520-1,0,14503
Z13-B-5-2-4,1,forward,0,1,3,0,985,985,1,2433
Z13-B-5-2-4,1,forward,0,2,3,1,928,928,1,3292
Z13-B-5-2-4,1,forward,0,3,4,0,0589,0589,1,2782
Z13-B-5-2-4,1,forward,0,4,4,1,2019,2019,1,3268
Z13-B-5-2-4,1,forward,0,5,5,0,81624,81624,1,5015
Z13-B-5-2-4,1,forward,0,6,5,1,03815,03815,1,4644
Z13-B-5-2-4,1,forward,0,7,6,0,453072,453072,1,4580
Z13-B-5-2-4,1,forward,0,8,6,1,379168,379168,1,5528
Z13-B-5-2-4,1,forward,0,9,7,0,2315469,2315469,1,14027
Z13-B-5-2-4,1,forward,0,10,7,1,2130549,2130549,1,4658
Z13-B-5-2-4,1,forward,0,11,8,0,84267903,84267903,1,5627
Z13-B-5-2-4,1,forward,0,12,8,1,97012486,97012486,1,9168
Z13-B-5-2-4,1,forward,0,13,9,0,075326149,041326713,0,14867
Z13-B-5-2-4,1,forward,0,14,9,1,473298056,473298061,0,13493
Z13-B-6-4-2,1,forward,0,1,3,0,348,348,1,2616
Z13-B-6-4-2,1,forward,0,2,3,1,509,509,1,2439
Z13-B-6-4-2,1,forward,0,3,4,0,4987,4987,1,2743
Z13-B-6-4-2,1,forward,0,4,4,1,1734,1734,1,3500
Z13-B-6-4-2,1,forward,0,5,5,0,58394,58394,1,4648
Z13-B-6-4-2,1,forward,0,6,5,1,68293,68293,1,4408
Z13-B-6-4-2,1,forward,0,7,6,0,824671,824671,1,3681
Z13-B-6-4-2,1,forward,0,8,6,1,148697,148697,1,4311
Z13-B-6-4-2,1,forward,0,9,7,0,1942583,1942583,1,6187
Z13-B-6-4-2,1,forward,0,10,7,1,9018473,9018473,1,6194
Z13-B-6-4-2,1,forward,0,11,8,0,39281450,39281450,1,8759
Z13-B-6-4-2,1,forward,0,12,8,1,09632748,09632748,1,6072
Z13-B-6-4-2,1,forward,0,13,9,0,421793865,421793865,1,9837
Z13-B-6-4-2,1,forward,0,14,9,1,235079618,235079618,1,8851
Z13-B-6-4-2,1,forward,0,15,10,0,5316827409,5316827409,1,9358
Z13-B-6-4-2,1,forward,0,16,10,1,5923107486,5923107468,0,26587
Z13-B-7-3-1,1,forward,0,1,3,0,287,287,1,2042
Z13-B-7-3-1,1,forward,0,2,3,1,976,976,1,3260
Z13-B-7-3-1,1,forward,0,3,4,0,7204,7204,1,2265
Z13-B-7-3-1,1,forward,0,4,4,1,3186,3186,1,5515
Z13-B-7-3-1,1,forward,0,5,5,0,90314,90314,1,3494
Z13-B-7-3-1,1,forward,0,6,5,1,60149,60149,1,5885
Z13-B-7-3-1,1,forward,0,7,6,0,198046,198046,1,10224
Z13-B-7-3-1,1,forward,0,8,6,1,961420,961420,1,7710
Z13-B-7-3-1,1,forward,0,9,7,0,0139287,0139287,1,5760
Z13-B-7-3-1,1,forward,0,10,7,1,5971436,5971436,1,7459
Z13-B-7-3-1,1,forward,0,11,8,0,36107492,36107492,1,6555
Z13-B-7-3-1,1,forward,0,12,8,1,27609345,27609346,0,7067
Z13-B-7-3-1,1,forward,0,13,9,0,254198306,--4190836,0,9366
Z13-B-7-3-1,1,forward,0,14,9,1,451926708,411923062,0,10669
Z13-B-8-1-5,1,forward,0,1,3,0,072,072,1,4726
Z13-B-8-1-5,1,forward,0,2,3,1,361,-61,0,4803
Z13-B-8-1-5,1,forward,0,3,4,0,9034,9034,1,4041
Z13-B-8-1-5,1,forward,0,4,4,1,9865,9865,1,2978
Z13-B-8-1-5,1,forward,0,5,5,0,36547,36547,1,4669
Z13-B-8-1-5,1,forward,0,6,5,1,85327,85327,1,6513
Z13-B-8-1-5,1,forward,0,7,6,0,147903,147903,1,5331
Z13-B-8-1-5,1,forward,0,8,6,1,832651,832651,1,4350
Z13-B-8-1-5,1,forward,0,9,7,0,8429307,8429307,1,7316
Z13-B-8-1-5,1,forward,0,10,7,1,5064387,5064387,1,6850
Z13-B-8-1-5,1,forward,0,11,8,0,39420678,39420678,1,7596
Z13-B-8-1-5,1,forward,0,12,8,1,91507843,91507843,1,6370
Z13-B-8-1-5,1,forward,0,13,9,0,805697423,816078321,0,13928
Z13-B-8-1-5,1,forward,0,14,9,1,860914527,608295264,0,10252
Z13-B-9-2-1,1,forward,0,1,3,0,819,819,1,1915
Z13-B-9-2-1,1,forward,0,2,3,1,850,850,1,3760
Z13-B-9-2-1,1,forward,0,3,4,0,7809,7809,1,2537
Z13-B-9-2-1,1,forward,0,4,4,1,1823,1823,1,3698
Z13-B-9-2-1,1,forward,0,5,5,0,28097,28097,1,2994
Z13-B-9-2-1,1,forward,0,6,5,1,34075,34075,1,4213
Z13-B-9-2-1,1,forward,0,7,6,0,938046,938046,1,4934
Z13-B-9-2-1,1,forward,0,8,6,1,623148,623148,1,3221
Z13-B-9-2-1,1,forward,0,9,7,0,3160527,3160527,1,4583
Z13-B-9-2-1,1,forward,0,10,7,1,9457680,9457680,1,6016
Z13-B-9-2-1,1,forward,0,11,8,0,20379461,20379461,1,8457
Z13-B-9-2-1,1,forward,0,12,8,1,43857061,43857061,1,5377
Z13-B-9-2-1,1,forward,0,13,9,0,048935261,048935261,1,10158
Z13-B-9-2-1,1,forward,0,14,9,1,028693745,028693745,1,8912
Z13-B-9-2-1,1,forward,0,15,10,0,8041237569,8041293567,0,18310
Z13-B-9-2-1,1,forward,0,16,10,1,4687105329,4680715342,0,10231
Z13-B-10-4-3,1,backward,0,1,3,0,613,613,1,2030
Z13-B-10-4-3,1,backward,0,2,3,1,021,021,1,1535
Z13-B-10-4-3,1,backward,0,3,4,0,2987,2987,1,2140
Z13-B-10-4-3,1,backward,0,4,4,1,8761,8761,1,3091
Z13-B-10-4-3,1,backward,0,5,5,0,89201,89201,1,3057
Z13-B-10-4-3,1,backward,0,6,5,1,87590,87590,1,4077
Z13-B-10-4-3,1,backward,0,7,6,0,502613,502613,1,4070
Z13-B-10-4-3,1,backward,0,8,6,1,917532,907532,0,3935
Z13-B-10-4-3,1,backward,0,9,7,0,3470965,3470965,1,5013
Z13-B-10-4-3,1,backward,0,10,7,1,0895631,0895613,0,6626
Z13-B-10-4-3,1,backward,0,11,8,0,07685149,07685149,1,6554
Z13-B-10-4-3,1,backward,0,12,8,1,85243760,83245760,0,4442
Z13-B-10-4-3,1,backward,0,13,9,0,691075243,691075243,1,5732
Z13-B-10-4-3,1,backward,0,14,9,1,931480527,931480527,1,14198
Z13-B-10-4-3,1,backward,0,15,10,0,4703158926,4731589026,0,15659
Z13-B-10-4-3,1,backward,0,16,10,1,3625409817,5436209817,0,6765
Z13-B-11-3-7,1,backward,0,1,3,0,253,253,1,1871
Z13-B-11-3-7,1,backward,0,2,3,1,840,840,1,4779
Z13-B-11-3-7,1,backward,0,3,4,0,8371,8371,1,2985
Z13-B-11-3-7,1,backward,0,4,4,1,3674,3674,1,3899
Z13-B-11-3-7,1,backward,0,5,5,0,32701,32701,1,3886
Z13-B-11-3-7,1,backward,0,6,5,1,73190,73190,1,3495
Z13-B-11-3-7,1,backward,0,7,6,0,493568,493568,1,4360
Z13-B-11-3-7,1,backward,0,8,6,1,125897,125897,1,4524
Z13-B-11-3-7,1,backward,0,9,7,0,7230851,7230851,1,7224
Z13-B-11-3-7,1,backward,0,10,7,1,4670523,4670523,1,5399
Z13-B-11-3-7,1,backward,0,11,8,0,18657320,18675320,0,5726
Z13-B-11-3-7,1,backward,0,12,8,1,81342760,81342760,1,4368
Z13-B-11-3-7,1,backward,0,13,9,0,061954278,061954278,1,9292
Z13-B-11-3-7,1,backward,0,14,9,1,712649830,912645830,0,18752
Z13-B-11-3-7,1,backward,0,15,10,0,9076543812,9076543182,0,8741
Z13-B-11-3-7,1,backward,0,16,10,1,6782950134,1700295134,0,8960
Z13-B-12-1-3,1,backward,0,1,3,0,613,613,1,2023
Z13-B-12-1-3,1,backward,0,2,3,1,076,076,1,1732
Z13-B-12-1-3,1,backward,0,3,4,0,9480,9480,1,1821
Z13-B-12-1-3,1,backward,0,4,4,1,1396,1396,1,3748
Z13-B-12-1-3,1,backward,0,5,5,0,27365,27365,1,2542
Z13-B-12-1-3,1,backward,0,6,5,1,87521,87521,1,2300
Z13-B-12-1-3,1,backward,0,7,6,0,842965,842965,1,3892
Z13-B-12-1-3,1,backward,0,8,6,1,351247,351247,1,3824
Z13-B-12-1-3,1,backward,0,9,7,0,6170534,6170534,1,4754
Z13-B-12-1-3,1,backward,0,10,7,1,8352476,8352476,1,4311
Z13-B-12-1-3,1,backward,0,11,8,0,72146835,72146835,1,14883
Z13-B-12-1-3,1,backward,0,12,8,1,71830296,61830296,0,5959
Z13-B-12-1-3,1,backward,0,13,9,0,394750281,394780281,0,8539
Z13-B-12-1-3,1,backward,0,14,9,1,648975023,648975023,1,9704
Z13-B-12-1-3,1,backward,0,15,10,0,6048215379,6048215379,1,10047
Z13-B-12-1-3,1,backward,0,16,10,1,8132069547,8132069547,1,8125
Z13-B-1-2-8,1,backward,0,1,3,0,645,645,1,2765
Z13-B-1-2-8,1,backward,0,2,3,1,548,548,1,2730
Z13-B-1-2-8,1,backward,0,3,4,0,4713,4713,1,3962
Z13-B-1-2-8,1,backward,0,4,4,1,6382,6382,1,3589
Z13-B-1-2-8,1,backward,0,5,5,0,60453,60453,1,3160
Z13-B-1-2-8,1,backward,0,6,5,1,24907,94207,0,5663
Z13-B-1-2-8,1,backward,0,7,6,0,726308,726308,1,4554
Z13-B-1-2-8,1,backward,0,8,6,1,053841,053841,1,4444
Z13-B-1-2-8,1,backward,0,9,7,0,6294058,6294058,1,7107
Z13-B-1-2-8,1,backward,0,10,7,1,0457962,0457962,1,8096
Z13-B-1-2-8,1,backward,0,11,8,0,94521738,94125738,0,10900
Z13-B-1-2-8,1,backward,0,12,8,1,32058469,32058469,1,5388
Z13-B-1-2-8,1,backward,0,13,9,0,894310562,894310562,1,12111
Z13-B-1-2-8,1,backward,0,14,9,1,517632489,817632489,0,8829
Z13-B-1-2-8,1,backward,0,15,10,0,5924683710,1754672810,0,11214
Z13-B-1-2-8,1,backward,0,16,10,1,6390721548,6394201458,0,11700
Z13-B-2-4-1,1,backward,0,1,3,0,948,948,1,2752
Z13-B-2-4-1,1,backward,0,2,3,1,396,396,1,4019
Z13-B-2-4-1,1,backward,0,3,4,0,1382,1382,1,3118
Z13-B-2-4-1,1,backward,0,4,4,1,8613,-613,0,5480
Z13-B-2-4-1,1,backward,0,5,5,0,71924,71924,1,6414
Z13-B-2-4-1,1,backward,0,6,5,1,02469,02469,1,3948
Z13-B-2-4-1,1,backward,0,7,6,0,235961,235961,1,9297
Z13-B-2-4-1,1,backward,0,8,6,1,206184,206184,1,5034
Z13-B-2-4-1,1,backward,0,9,7,0,1289364,1289364,1,15829
Z13-B-2-4-1,1,backward,0,10,7,1,2401367,2401367,1,7939
Z13-B-2-4-1,1,backward,0,11,8,0,32659147,32746147,0,16244
Z13-B-2-4-1,1,backward,0,12,8,1,34092687,34092687,1,7882
Z13-B-2-4-1,1,backward,0,13,9,0,948520713,948520713,1,11070
Z13-B-2-4-1,1,backward,0,14,9,1,654093817,6534--817,0,30613
Z13-B-2-4-1,1,backward,0,15,10,0,5081924637,1932024637,0,9596
Z13-B-2-4-1,1,backward,0,16,10,1,4190236758,4190236758,1,16869
Z13-B-3-3-3,1,backward,0,1,3,0,496,496,1,5797
Z13-B-3-3-3,1,backward,0,2,3,1,617,617,1,3335
Z13-B-3-3-3,1,backward,0,3,4,0,3406,3406,1,4056
Z13-B-3-3-3,1,backward,0,4,4,1,3167,3167,1,3642
Z13-B-3-3-3,1,backward,0,5,5,0,51029,51029,1,4685
Z13-B-3-3-3,1,backward,0,6,5,1,35869,35869,1,4037
Z13-B-3-3-3,1,backward,0,7,6,0,924187,924187,1,6052
Z13-B-3-3-3,1,backward,0,8,6,1,186097,186097,1,4820
Z13-B-3-3-3,1,backward,0,9,7,0,0791258,0791258,1,8155
Z13-B-3-3-3,1,backward,0,10,7,1,7380945,7380945,1,5730
Z13-B-3-3-3,1,backward,0,11,8,0,83461207,83416-07,0,17916
Z13-B-3-3-3,1,backward,0,12,8,1,80471652,80471652,1,9314
Z13-B-3-3-3,1,backward,0,13,9,0,360759821,360759821,1,9077
Z13-B-3-3-3,1,backward,0,14,9,1,124876053,124876053,1,12380
Z13-B-3-3-3,1,backward,0,15,10,0,3175096428,3107596428,0,11143
Z13-B-3-3-3,1,backward,0,16,10,1,9751320684,9751820684,0,7274
Z13-B-4-1-4,1,backward,0,1,3,0,381,381,1,14018
Z13-B-4-1-4,1,backward,0,2,3,1,056,056,1,2450
Z13-B-4-1-4,1,backward,0,3,4,0,3086,3086,1,3729
Z13-B-4-1-4,1,backward,0,4,4,1,1420,1420,1,3762
Z13-B-4-1-4,1,backward,0,5,5,0,73520,73520,1,4906
Z13-B-4-1-4,1,backward,0,6,5,1,14369,14369,1,3932
Z13-B-4-1-4,1,backward,0,7,6,0,397402,397402,1,4508
Z13-B-4-1-4,1,backward,0,8,6,1,059273,059273,1,5268
Z13-B-4-1-4,1,backward,0,9,7,0,5490861,5490861,1,4887
Z13-B-4-1-4,1,backward,0,10,7,1,0241896,0241896,1,5361
Z13-B-4-1-4,1,backward,0,11,8,0,26458109,26458109,1,6342
Z13-B-4-1-4,1,backward,0,12,8,1,36417205,36417205,1,7066
Z13-B-4-1-4,1,backward,0,13,9,0,801493672,501493672,0,10693
Z13-B-4-1-4,1,backward,0,14,9,1,964280157,964280157,1,7581
Z13-B-4-1-4,1,backward,0,15,10,0,6253491078,6543291078,0,6274
Z13-B-4-1-4,1,backward,0,16,10,1,8465379012,8465379012,1,5207
Z13-B-5-2-7,1,backward,0,1,3,0,914,914,1,2399
Z13-B-5-2-7,1,backward,0,2,3,1,862,862,1,2896
Z13-B-5-2-7,1,backward,0,3,4,0,0796,0796,1,5451
Z13-B-5-2-7,1,backward,0,4,4,1,2361,2361,1,2889
Z13-B-5-2-7,1,backward,0,5,5,0,85026,85026,1,4121
Z13-B-5-2-7,1,backward,0,6,5,1,39214,39214,1,7794
Z13-B-5-2-7,1,backward,0,7,6,0,182063,182063,1,5359
Z13-B-5-2-7,1,backward,0,8,6,1,502173,502173,1,7680
Z13-B-5-2-7,1,backward,0,9,7,0,5926107,5926107,1,9308
Z13-B-5-2-7,1,backward,0,10,7,1,1235480,1235480,1,4246
Z13-B-5-2-7,1,backward,0,11,8,0,91320754,29130754,0,8244
Z13-B-5-2-7,1,backward,0,12,8,1,76459801,69875401,0,5072
Z13-B-6-4-3,1,backward,0,1,3,0,471,471,1,2600
Z13-B-6-4-3,1,backward,0,2,3,1,301,301,1,10591
Z13-B-6-4-3,1,backward,0,3,4,0,5817,5817,1,2845
Z13-B-6-4-3,1,backward,0,4,4,1,3670,3670,1,3175
Z13-B-6-4-3,1,backward,0,5,5,0,76024,76024,1,3711
Z13-B-6-4-3,1,backward,0,6,5,1,65791,65791,1,3347
Z13-B-6-4-3,1,backward,0,7,6,0,964258,964258,1,4761
Z13-B-6-4-3,1,backward,0,8,6,1,375824,375824,1,4208
Z13-B-6-4-3,1,backward,0,9,7,0,7904536,7904536,1,6881
Z13-B-6-4-3,1,backward,0,10,7,1,3912847,3912847,1,5959
Z13-B-6-4-3,1,backward,0,11,8,0,93456280,93456280,1,5193
Z13-B-6-4-3,1,backward,0,12,8,1,24193068,24193068,1,5525
Z13-B-6-4-3,1,backward,0,13,9,0,097614583,097624583,0,6901
Z13-B-6-4-3,1,backward,0,14,9,1,360812749,760812749,0,11954
Z13-B-7-3-7,1,backward,0,1,3,0,106,106,1,2719
Z13-B-7-3-7,1,backward,0,2,3,1,702,702,1,2142
Z13-B-7-3-7,1,backward,0,3,4,0,0237,0237,1,2841
Z13-B-7-3-7,1,backward,0,4,4,1,6891,6891,1,2597
Z13-B-7-3-7,1,backward,0,5,5,0,30618,30618,1,5145
Z13-B-7-3-7,1,backward,0,6,5,1,97302,97302,1,5122
Z13-B-7-3-7,1,backward,0,7,6,0,721843,187243,0,4006
Z13-B-7-3-7,1,backward,0,8,6,1,526180,526180,1,5129
Z13-B-7-3-7,1,backward,0,9,7,0,9154726,9154726,1,3868
Z13-B-7-3-7,1,backward,0,10,7,1,4783920,4783920,1,5948
Z13-B-7-3-7,1,backward,0,11,8,0,18576492,50176892,0,26958
Z13-B-7-3-7,1,backward,0,12,8,1,90836457,90836457,1,4375
Z13-B-7-3-7,1,backward,0,13,9,0,384520916,382450916,0,7418
Z13-B-7-3-7,1,backward,0,14,9,1,279135804,279135804,1,6088
Z13-B-7-3-7,1,backward,0,15,10,0,0741325689,0741325689,1,7937
Z13-B-7-3-7,1,backward,0,16,10,1,8910465723,-921045723,0,11774
Z13-B-8-1-4,1,backward,0,1,3,0,376,376,1,3974
Z13-B-8-1-4,1,backward,0,2,3,1,016,016,1,3463
Z13-B-8-1-4,1,backward,0,3,4,0,7890,7890,1,2563
Z13-B-8-1-4,1,backward,0,4,4,1,6537,6537,1,3047
Z13-B-8-1-4,1,backward,0,5,5,0,46978,46978,1,5233
Z13-B-8-1-4,1,backward,0,6,5,1,79320,79320,1,5396
Z13-B-8-1-4,1,backward,0,7,6,0,764153,794153,0,6739
Z13-B-8-1-4,1,backward,0,8,6,1,981732,981732,1,6408
Z13-B-8-1-4,1,backward,0,9,7,0,3501486,3501846,0,5786
Z13-B-8-1-4,1,backward,0,10,7,1,4817395,3817395,0,7058
Z13-B-9-2-6,1,backward,0,1,3,0,768,768,1,1664
Z13-B-9-2-6,1,backward,0,2,3,1,498,498,1,1808
Z13-B-9-2-6,1,backward,0,3,4,0,2760,2760,1,2318
Z13-B-9-2-6,1,backward,0,4,4,1,2031,2031,1,3400
Z13-B-9-2-6,1,backward,0,5,5,0,57264,57264,1,3035
Z13-B-9-2-6,1,backward,0,6,5,1,03982,03982,1,4595
Z13-B-9-2-6,1,backward,0,7,6,0,138452,138452,1,5521
Z13-B-9-2-6,1,backward,0,8,6,1,059413,159413,0,7441
Z13-B-9-2-6,1,backward,0,9,7,0,5978360,5978360,1,4633
Z13-B-9-2-6,1,backward,0,10,7,1,0237841,0237841,1,5313
Z13-B-9-2-6,1,backward,0,11,8,0,72459610,72459610,1,5230
Z13-B-9-2-6,1,backward,0,12,8,1,80431627,80431627,1,6804
Z13-B-9-2-6,1,backward,0,13,9,0,534089712,543089712,0,13502
Z13-B-9-2-6,1,backward,0,14,9,1,150793628,46-074268,0,7326
